Folder: spectroscopy-tetracorder/sl1/usgs/library06/DESCRIPT/new_xrd_results_to_be_added/Rhonda_Driscoll_xrd_runs (part 20)

File: WS483-Grossularite.txt
/////////////////////////////////////////////////////////////////////////////////
/// Profile Data Ascii Dump (XRD)                                             ///
/////////////////////////////////////////////////////////////////////////////////

  Group     : Swayze
  Data      : WS483
  File Name : WS483.RAW

# Profile Datafile
          comment             = Grossularite
          date & time         = 08-04-09 06:49:21

# Measurement Condition
    X-ray tube
          target              = Cu
          voltage             = 40.0 (kV)
          current             = 30.0 (mA)
    Slits
          divergence slit     = 2.00000 (deg)
          scatter slit        = 2.00000 (deg)
          receiving slit      = 0.15000 (mm)
    Scanning
          drive axis          = Theta-2Theta
          scan range          =    4.000 -   65.000
          scan mode           = Continuous Scan
          scan speed          =   2.0000 (deg/min)
          sampling pitch      =   0.0200 (deg)
          preset time         =   0.60 (sec)

# Data      [ Total No. = 3051 ]
  <2Theta>   <   I   >
     4.0000       164
     4.2200       202
     4.4400       182
     4.6600       166
     4.8800       184
     5.1000       164
     5.3200       158
     5.5400       146
     5.7600       158
     5.9800       162
     6.2000       142
     6.4200       152
     6.6400       134
     6.8600       136
     7.0800       112
     7.3000       136
     7.5200       116
     7.7400       122
     7.9600       112
     8.1800        98
     8.4000       130
     8.6200        98
     8.8400       110
     9.0600       116
     9.2800       126
     9.5000       102
     9.7200       110
     9.9400        96
    10.1600       106
    10.3800        98
    10.6000       104
    10.8200        84
    11.0400        76
    11.2600       108
    11.4800        90
    11.7000        70
    11.9200        84
    12.1400        80
    12.3600        74
    12.5800        76
    12.8000        64
    13.0200        70
    13.2400        76
    13.4600        74
    13.6800        64
    13.9000        62
    14.1200        58
    14.3400        50
    14.5600        54
    14.7800        62
    15.0000        66
    15.2200        46
    15.4400        52
    15.6600        50
    15.8800        54
    16.1000        50
    16.3200        54
    16.5400        60
    16.7600        56
    16.9800        48
    17.2000        46
    17.4200        56
    17.6400        54
    17.8600        42
    18.0800        50
    18.3000        68
    18.5200        50
    18.7400        52
    18.9600        52
    19.1800        44
    19.4000        46
    19.6200        46
    19.8400        46
    20.0600        42
    20.2800        40
    20.5000        42
    20.7200        44
    20.9400        46
    21.1600        44
    21.3800        42
    21.6000        30
    21.8200        44
    22.0400        40
    22.2600        34
    22.4800        34
    22.7000        32
    22.9200        42
    23.1400        36
    23.3600        42
    23.5800        40
    23.8000        38
    24.0200        42
    24.2400        30
    24.4600        34
    24.6800        30
    24.9000        34
    25.1200        34
    25.3400        26
    25.5600        36
    25.7800        20
    26.0000        32
    26.2200        28
    26.4400        22
    26.6600        30
    26.8800        38
    27.1000        40
    27.3200        28
    27.5400        32
    27.7600        30
    27.9800        42
    28.2000        30
    28.4200        24
    28.6400        26
    28.8600        28
    29.0800        28
    29.3000        46
    29.5200        40
    29.7400        60
    29.9600       836
    30.1800        72
    30.4000        30
    30.6200        28
    30.8400        22
    31.0600        28
    31.2800        22
    31.5000        30
    31.7200        26
    31.9400        24
    32.1600        30
    32.3800        32
    32.6000        28
    32.8200        40
    33.0400        34
    33.2600        50
    33.4800       428
    33.7000      1536
    33.9200        68
    34.1400        30
    34.3600        34
    34.5800        30
    34.8000        30
    35.0200        40
    35.2400        88
    35.4600       118
    35.6800        22
    35.9000        18
    36.1200        24
    36.3400        18
    36.5600        30
    36.7800       106
    37.0000       520
    37.2200        50
    37.4400        26
    37.6600        30
    37.8800        22
    38.1000        22
    38.3200        44
    38.5400       372
    38.7600        54
    38.9800        26
    39.2000        34
    39.4200        28
    39.6400        20
    39.8600        22
    40.0800        12
    40.3000        36
    40.5200         8
    40.7400        12
    40.9600        20
    41.1800        32
    41.4000        70
    41.6200       322
    41.8400        40
    42.0600        18
    42.2800        22
    42.5000        16
    42.7200        20
    42.9400        96
    43.1600        42
    43.3800        22
    43.6000        18
    43.8200        20
    44.0400        18
    44.2600         8
    44.4800        14
    44.7000        24
    44.9200        26
    45.1400        16
    45.3600        18
    45.5800        14
    45.8000        26
    46.0200        16
    46.2400        20
    46.4600        22
    46.6800        20
    46.9000        60
    47.1200       384
    47.3400        40
    47.5600        20
    47.7800        16
    48.0000        14
    48.2200        26
    48.4400        44
    48.6600        22
    48.8800        26
    49.1000        18
    49.3200        16
    49.5400        20
    49.7600        22
    49.9800        12
    50.2000        16
    50.4200        18
    50.6400        22
    50.8600        14
    51.0800        20
    51.3000        18
    51.5200        22
    51.7400        24
    51.9600        24
    52.1800        16
    52.4000        20
    52.6200        26
    52.8400        18
    53.0600        54
    53.2800       378
    53.5000       368
    53.7200        34
    53.9400        20
    54.1600        38
    54.3800        24
    54.6000        30
    54.8200        28
    55.0400        30
    55.2600        40
    55.4800        80
    55.7000       822
    55.9200       204
    56.1400        36
    56.3600        20
    56.5800        12
    56.8000        32
    57.0200        44
    57.2400        26
    57.4600        40
    57.6800        46
    57.9000       262
    58.1200       526
    58.3400        46
    58.5600        26
    58.7800        22
    59.0000        12
    59.2200        18
    59.4400        20
    59.6600        24
    59.8800        18
    60.1000        20
    60.3200        32
    60.5400        16
    60.7600        24
    60.9800        24
    61.2000        18
    61.4200        26
    61.6400        16
    61.8600        20
    62.0800        20
    62.3000        52
    62.5200        80
    62.7400        34
    62.9600        22
    63.1800        18
    63.4000        34
    63.6200        38
    63.8400        24
    64.0600        16
    64.2800        24
    64.5000        22
    64.7200        14
    64.9400        16
    65.0000        18

File: WS588-Diopside-Hoefen.txt
/////////////////////////////////////////////////////////////////////////////////
/// Profile Data Ascii Dump (XRD)                                             ///
/////////////////////////////////////////////////////////////////////////////////

  Group     : Swayze
  Data      : WS588
  File Name : WS588.RAW

# Profile Datafile
          comment             = Diopside-Todd
          date & time         = 08-04-15 06:50:20

# Measurement Condition
    X-ray tube
          target              = Cu
          voltage             = 40.0 (kV)
          current             = 30.0 (mA)
    Slits
          divergence slit     = 2.00000 (deg)
          scatter slit        = 2.00000 (deg)
          receiving slit      = 0.15000 (mm)
    Scanning
          drive axis          = Theta-2Theta
          scan range          =    4.000 -   65.000
          scan mode           = Continuous Scan
          scan speed          =   2.0000 (deg/min)
          sampling pitch      =   0.0200 (deg)
          preset time         =   0.60 (sec)

# Data      [ Total No. = 3051 ]
  <2Theta>   <   I   >
     4.0000       188
     4.2200       180
     4.4400       164
     4.6600       156
     4.8800       188
     5.1000       146
     5.3200       156
     5.5400       168
     5.7600       158
     5.9800       146
     6.2000       150
     6.4200       138
     6.6400       144
     6.8600       130
     7.0800       122
     7.3000       120
     7.5200       106
     7.7400       112
     7.9600        92
     8.1800       128
     8.4000       116
     8.6200       114
     8.8400       136
     9.0600       118
     9.2800       110
     9.5000       122
     9.7200       104
     9.9400       108
    10.1600       152
    10.3800       136
    10.6000        96
    10.8200        90
    11.0400       112
    11.2600        78
    11.4800       112
    11.7000       102
    11.9200        82
    12.1400        80
    12.3600        70
    12.5800        66
    12.8000        66
    13.0200        84
    13.2400        90
    13.4600        86
    13.6800        98
    13.9000        62
    14.1200        48
    14.3400        66
    14.5600        58
    14.7800        64
    15.0000        76
    15.2200        78
    15.4400        58
    15.6600        68
    15.8800        50
    16.1000        50
    16.3200        54
    16.5400        66
    16.7600        58
    16.9800        56
    17.2000        50
    17.4200        54
    17.6400        46
    17.8600        50
    18.0800        54
    18.3000        46
    18.5200        76
    18.7400        98
    18.9600        44
    19.1800        50
    19.4000        66
    19.6200        70
    19.8400        72
    20.0600        56
    20.2800        40
    20.5000        50
    20.7200        56
    20.9400        54
    21.1600        54
    21.3800        54
    21.6000        58
    21.8200        44
    22.0400        52
    22.2600        44
    22.4800        48
    22.7000        40
    22.9200        46
    23.1400        38
    23.3600        36
    23.5800        46
    23.8000        50
    24.0200        46
    24.2400        34
    24.4600        36
    24.6800        34
    24.9000        38
    25.1200        56
    25.3400        40
    25.5600        42
    25.7800        36
    26.0000        32
    26.2200        52
    26.4400       126
    26.6600       102
    26.8800        48
    27.1000        76
    27.3200       340
    27.5400       190
    27.7600        54
    27.9800        52
    28.2000        64
    28.4200        74
    28.6400        50
    28.8600        38
    29.0800        54
    29.3000       114
    29.5200       182
    29.7400       944
    29.9600       350
    30.1800       422
    30.4000        66
    30.6200       112
    30.8400       174
    31.0600        52
    31.2800        28
    31.5000        38
    31.7200        34
    31.9400        28
    32.1600        24
    32.3800        34
    32.6000        32
    32.8200        46
    33.0400        50
    33.2600        52
    33.4800        36
    33.7000        32
    33.9200        28
    34.1400        32
    34.3600        42
    34.5800        58
    34.8000       242
    35.0200        66
    35.2400       206
    35.4600       396
    35.6800        74
    35.9000        40
    36.1200        40
    36.3400        38
    36.5600        40
    36.7800        28
    37.0000        22
    37.2200        28
    37.4400        36
    37.6600        38
    37.8800        26
    38.1000        54
    38.3200        66
    38.5400        36
    38.7600        74
    38.9800        60
    39.2000        32
    39.4200        42
    39.6400        24
    39.8600        24
    40.0800        32
    40.3000        44
    40.5200        62
    40.7400        40
    40.9600        34
    41.1800        44
    41.4000        58
    41.6200       182
    41.8400       108
    42.0600       120
    42.2800       212
    42.5000        70
    42.7200       154
    42.9400        40
    43.1600        44
    43.3800        56
    43.6000        32
    43.8200        32
    44.0400        60
    44.2600        68
    44.4800        26
    44.7000        62
    44.9200        80
    45.1400        32
    45.3600        36
    45.5800        24
    45.8000        46
    46.0200        48
    46.2400        46
    46.4600        28
    46.6800        30
    46.9000        24
    47.1200        18
    47.3400        30
    47.5600        32
    47.7800        30
    48.0000        28
    48.2200        28
    48.4400        36
    48.6600        86
    48.8800        30
    49.1000        38
    49.3200       104
    49.5400        66
    49.7600        40
    49.9800        38
    50.2000        36
    50.4200        30
    50.6400        20
    50.8600        22
    51.0800        36
    51.3000        52
    51.5200        30
    51.7400        98
    51.9600       324
    52.1800        40
    52.4000        28
    52.6200        28
    52.8400        30
    53.0600        40
    53.2800        40
    53.5000        30
    53.7200        26
    53.9400        32
    54.1600        36
    54.3800        36
    54.6000        56
    54.8200        48
    55.0400        36
    55.2600        44
    55.4800        34
    55.7000        38
    55.9200        34
    56.1400        60
    56.3600       236
    56.5800       208
    56.8000       130
    57.0200        46
    57.2400        38
    57.4600        64
    57.6800        32
    57.9000        50
    58.1200        28
    58.3400        28
    58.5600        44
    58.7800       172
    59.0000        38
    59.2200        64
    59.4400        78
    59.6600        44
    59.8800        48
    60.1000        38
    60.3200       118
    60.5400       100
    60.7600        52
    60.9800        36
    61.2000        38
    61.4200        84
    61.6400        40
    61.8600        50
    62.0800        64
    62.3000        60
    62.5200        30
    62.7400        26
    62.9600        30
    63.1800        34
    63.4000        30
    63.6200        22
    63.8400        26
    64.0600        52
    64.2800        50
    64.5000        44
    64.7200        42
    64.9400        42
    65.0000        56

File: WS592-Diopside-Hoefen.txt
/////////////////////////////////////////////////////////////////////////////////
/// Profile Data Ascii Dump (XRD)                                             ///
/////////////////////////////////////////////////////////////////////////////////

  Group     : GPlumlee
  Data      : WS592
  File Name : WS592.RAW

# Profile Datafile
          comment             = Diopside?-Hoefen
          date & time         = 08-04-16 08:46:14

# Measurement Condition
    X-ray tube
          target              = Cu
          voltage             = 40.0 (kV)
          current             = 30.0 (mA)
    Slits
          divergence slit     = 2.00000 (deg)
          scatter slit        = 2.00000 (deg)
          receiving slit      = 0.15000 (mm)
    Scanning
          drive axis          = Theta-2Theta
          scan range          =    4.000 -   65.000
          scan mode           = Continuous Scan
          scan speed          =   2.0000 (deg/min)
          sampling pitch      =   0.0200 (deg)
          preset time         =   0.60 (sec)

# Data      [ Total No. = 3051 ]
  <2Theta>   <   I   >
     4.0000       196
     4.2200       194
     4.4400       168
     4.6600       160
     4.8800       142
     5.1000       158
     5.3200       136
     5.5400       132
     5.7600       158
     5.9800       142
     6.2000       144
     6.4200       124
     6.6400       136
     6.8600       142
     7.0800       108
     7.3000       114
     7.5200       104
     7.7400        92
     7.9600       106
     8.1800        98
     8.4000       104
     8.6200       110
     8.8400       106
     9.0600       108
     9.2800       120
     9.5000        96
     9.7200        92
     9.9400       106
    10.1600       100
    10.3800        86
    10.6000        92
    10.8200        76
    11.0400        92
    11.2600        84
    11.4800        80
    11.7000        72
    11.9200        74
    12.1400        82
    12.3600        70
    12.5800        84
    12.8000        70
    13.0200        52
    13.2400        64
    13.4600        68
    13.6800        82
    13.9000        60
    14.1200        60
    14.3400        56
    14.5600        50
    14.7800        56
    15.0000        44
    15.2200        48
    15.4400        54
    15.6600        56
    15.8800        54
    16.1000        46
    16.3200        58
    16.5400        40
    16.7600        48
    16.9800        66
    17.2000        42
    17.4200        40
    17.6400        34
    17.8600        48
    18.0800        50
    18.3000        54
    18.5200        60
    18.7400        54
    18.9600        58
    19.1800        52
    19.4000        50
    19.6200        60
    19.8400       136
    20.0600        54
    20.2800        42
    20.5000        44
    20.7200        40
    20.9400        36
    21.1600        38
    21.3800        38
    21.6000        42
    21.8200        38
    22.0400        54
    22.2600        34
    22.4800        34
    22.7000        34
    22.9200        46
    23.1400        36
    23.3600        32
    23.5800        38
    23.8000        36
    24.0200        40
    24.2400        50
    24.4600        52
    24.6800        38
    24.9000        46
    25.1200        30
    25.3400        40
    25.5600        46
    25.7800        34
    26.0000        34
    26.2200        42
    26.4400        54
    26.6600        90
    26.8800        40
    27.1000        42
    27.3200        76
    27.5400       578
    27.7600        82
    27.9800        38
    28.2000        34
    28.4200        38
    28.6400        48
    28.8600        44
    29.0800        34
    29.3000        62
    29.5200       192
    29.7400       880
    29.9600       122
    30.1800       374
    30.4000       428
    30.6200       216
    30.8400       250
    31.0600        34
    31.2800        38
    31.5000        60
    31.7200        32
    31.9400        26
    32.1600        32
    32.3800        26
    32.6000        28
    32.8200        38
    33.0400        28
    33.2600        24
    33.4800        32
    33.7000        30
    33.9200        38
    34.1400        34
    34.3600        46
    34.5800        50
    34.8000       172
    35.0200       146
    35.2400        98
    35.4600       210
    35.6800       296
    35.9000       146
    36.1200        46
    36.3400        40
    36.5600        36
    36.7800        26
    37.0000        28
    37.2200        36
    37.4400        30
    37.6600        44
    37.8800        32
    38.1000        32
    38.3200        36
    38.5400        36
    38.7600        24
    38.9800        36
    39.2000       110
    39.4200        78
    39.6400        36
    39.8600        30
    40.0800        36
    40.3000        30
    40.5200        48
    40.7400        92
    40.9600        88
    41.1800        56
    41.4000        32
    41.6200        46
    41.8400       132
    42.0600       196
    42.2800       312
    42.5000        80
    42.7200        90
    42.9400        72
    43.1600        30
    43.3800        44
    43.6000        46
    43.8200        46
    44.0400        26
    44.2600        92
    44.4800       138
    44.7000       130
    44.9200        64
    45.1400        58
    45.3600        80
    45.5800        38
    45.8000        34
    46.0200        58
    46.2400        26
    46.4600        26
    46.6800        26
    46.9000        18
    47.1200        34
    47.3400        26
    47.5600        26
    47.7800        28
    48.0000        30
    48.2200        16
    48.4400        16
    48.6600        12
    48.8800        22
    49.1000        50
    49.3200        36
    49.5400        32
    49.7600       160
    49.9800        82
    50.2000        28
    50.4200        34
    50.6400        36
    50.8600        34
    51.0800        22
    51.3000        28
    51.5200        18
    51.7400        48
    51.9600        44
    52.1800       218
    52.4000        46
    52.6200        30
    52.8400        28
    53.0600        26
    53.2800        24
    53.5000        30
    53.7200        28
    53.9400        24
    54.1600        24
    54.3800        42
    54.6000        38
    54.8200        86
    55.0400        70
    55.2600        34
    55.4800        32
    55.7000        36
    55.9200        34
    56.1400        36
    56.3600       122
    56.5800       400
    56.8000        98
    57.0200       138
    57.2400        64
    57.4600        38
    57.6800        28
    57.9000        28
    58.1200        46
    58.3400        64
    58.5600        26
    58.7800        34
    59.0000        46
    59.2200        66
    59.4400        72
    59.6600       172
    59.8800        86
    60.1000        44
    60.3200        62
    60.5400        46
    60.7600        44
    60.9800        48
    61.2000        60
    61.4200        62
    61.6400        76
    61.8600        36
    62.0800        30
    62.3000        64
    62.5200        64
    62.7400        44
    62.9600        28
    63.1800        36
    63.4000        40
    63.6200        26
    63.8400        30
    64.0600        42
    64.2800        38
    64.5000        26
    64.7200        30
    64.9400        28
    65.0000        38