Folder: spectroscopy-tetracorder/sl1/usgs/library06/DESCRIPT/new_xrd_results_to_be_added/Rhonda_Driscoll_xrd_runs (part 18)

File: WS219---Goethite.txt
/////////////////////////////////////////////////////////////////////////////////
/// Profile Data Ascii Dump (XRD)                                             ///
/////////////////////////////////////////////////////////////////////////////////

  Group     : Swayze
  Data      : WS219
  File Name : WS219.RAW

# Profile Datafile
          comment             = Goethite
          date & time         = 08-03-14 06:24:56

# Measurement Condition
    X-ray tube
          target              = Cu
          voltage             = 40.0 (kV)
          current             = 30.0 (mA)
    Slits
          divergence slit     = 2.00000 (deg)
          scatter slit        = 2.00000 (deg)
          receiving slit      = 0.15000 (mm)
    Scanning
          drive axis          = Theta-2Theta
          scan range          =    4.000 -   65.000
          scan mode           = Continuous Scan
          scan speed          =   2.0000 (deg/min)
          sampling pitch      =   0.0200 (deg)
          preset time         =   0.60 (sec)

# Data      [ Total No. = 3051 ]
  <2Theta>   <   I   >
     4.0000       182
     4.2200       198
     4.4400       204
     4.6600       158
     4.8800       168
     5.1000       166
     5.3200       166
     5.5400       160
     5.7600       168
     5.9800       178
     6.2000       170
     6.4200       176
     6.6400       132
     6.8600       134
     7.0800       120
     7.3000       144
     7.5200       120
     7.7400       124
     7.9600       108
     8.1800       114
     8.4000       140
     8.6200       138
     8.8400       106
     9.0600       116
     9.2800       116
     9.5000       124
     9.7200       122
     9.9400       122
    10.1600       108
    10.3800       104
    10.6000       112
    10.8200        88
    11.0400       104
    11.2600       102
    11.4800        82
    11.7000        78
    11.9200       100
    12.1400        88
    12.3600        98
    12.5800        90
    12.8000        80
    13.0200        86
    13.2400        86
    13.4600        60
    13.6800        76
    13.9000       120
    14.1200       128
    14.3400        74
    14.5600        84
    14.7800        62
    15.0000        64
    15.2200        88
    15.4400        80
    15.6600        72
    15.8800        44
    16.1000        52
    16.3200        58
    16.5400        70
    16.7600        56
    16.9800        52
    17.2000        72
    17.4200        64
    17.6400        66
    17.8600        62
    18.0800        60
    18.3000        60
    18.5200        44
    18.7400        54
    18.9600        60
    19.1800        46
    19.4000        62
    19.6200        68
    19.8400        68
    20.0600        70
    20.2800        78
    20.5000        76
    20.7200       228
    20.9400       124
    21.1600       166
    21.3800        98
    21.6000        78
    21.8200        68
    22.0400        60
    22.2600        70
    22.4800        52
    22.7000        62
    22.9200        54
    23.1400        64
    23.3600        36
    23.5800        40
    23.8000        42
    24.0200        62
    24.2400        64
    24.4600        60
    24.6800        58
    24.9000        56
    25.1200        54
    25.3400        54
    25.5600        46
    25.7800        56
    26.0000        58
    26.2200        88
    26.4400       414
    26.6600       234
    26.8800       182
    27.1000        88
    27.3200        36
    27.5400        50
    27.7600        30
    27.9800        32
    28.2000        50
    28.4200        40
    28.6400        48
    28.8600        48
    29.0800        36
    29.3000        36
    29.5200        60
    29.7400        54
    29.9600        32
    30.1800        28
    30.4000        28
    30.6200        50
    30.8400        36
    31.0600        46
    31.2800        36
    31.5000        44
    31.7200        44
    31.9400        38
    32.1600        44
    32.3800        46
    32.6000        36
    32.8200        64
    33.0400        92
    33.2600        70
    33.4800        64
    33.7000        52
    33.9200        54
    34.1400        50
    34.3600        60
    34.5800        74
    34.8000        72
    35.0200        66
    35.2400        60
    35.4600        72
    35.6800        56
    35.9000        88
    36.1200       194
    36.3400       188
    36.5600       214
    36.7800       126
    37.0000        70
    37.2200        52
    37.4400        30
    37.6600        48
    37.8800        64
    38.1000        54
    38.3200        54
    38.5400        36
    38.7600        38
    38.9800        38
    39.2000        52
    39.4200        72
    39.6400        54
    39.8600        68
    40.0800        72
    40.3000        78
    40.5200        48
    40.7400        54
    40.9600        48
    41.1800        76
    41.4000        58
    41.6200        40
    41.8400        38
    42.0600        32
    42.2800        62
    42.5000        40
    42.7200        40
    42.9400        28
    43.1600        50
    43.3800        44
    43.6000        30
    43.8200        40
    44.0400        40
    44.2600        32
    44.4800        46
    44.7000        56
    44.9200        32
    45.1400        38
    45.3600        40
    45.5800        56
    45.8000        38
    46.0200        40
    46.2400        44
    46.4600        58
    46.6800       134
    46.9000        88
    47.1200        58
    47.3400        56
    47.5600        42
    47.7800        44
    48.0000        46
    48.2200        36
    48.4400        38
    48.6600        36
    48.8800        44
    49.1000        70
    49.3200        44
    49.5400        40
    49.7600        42
    49.9800       122
    50.2000        66
    50.4200        44
    50.6400        46
    50.8600        28
    51.0800        46
    51.3000        32
    51.5200        36
    51.7400        40
    51.9600        38
    52.1800        38
    52.4000        54
    52.6200        88
    52.8400        72
    53.0600       124
    53.2800        74
    53.5000        70
    53.7200        54
    53.9400        58
    54.1600        58
    54.3800        56
    54.6000        44
    54.8200        84
    55.0400        44
    55.2600        38
    55.4800        38
    55.7000        34
    55.9200        40
    56.1400        40
    56.3600        34
    56.5800        36
    56.8000        40
    57.0200        44
    57.2400        50
    57.4600        40
    57.6800        38
    57.9000        34
    58.1200        36
    58.3400        44
    58.5600        64
    58.7800        58
    59.0000        82
    59.2200        66
    59.4400        60
    59.6600        38
    59.8800        82
    60.1000        70
    60.3200        66
    60.5400        80
    60.7600        70
    60.9800        34
    61.2000        80
    61.4200        68
    61.6400        50
    61.8600        42
    62.0800        68
    62.3000        34
    62.5200        38
    62.7400        32
    62.9600        34
    63.1800        36
    63.4000        38
    63.6200        36
    63.8400        60
    64.0600        64
    64.2800        60
    64.5000        42
    64.7200        56
    64.9400        46
    65.0000        48

File: WS220-Goethite.txt
/////////////////////////////////////////////////////////////////////////////////
/// Profile Data Ascii Dump (XRD)                                             ///
/////////////////////////////////////////////////////////////////////////////////

  Group     : Swayze
  Data      : WS220
  File Name : WS220.RAW

# Profile Datafile
          comment             = Geothite
          date & time         = 08-04-08 07:29:36

# Measurement Condition
    X-ray tube
          target              = Cu
          voltage             = 40.0 (kV)
          current             = 30.0 (mA)
    Slits
          divergence slit     = 2.00000 (deg)
          scatter slit        = 2.00000 (deg)
          receiving slit      = 0.15000 (mm)
    Scanning
          drive axis          = Theta-2Theta
          scan range          =    4.000 -   65.000
          scan mode           = Continuous Scan
          scan speed          =   2.0000 (deg/min)
          sampling pitch      =   0.0200 (deg)
          preset time         =   0.60 (sec)

# Data      [ Total No. = 3051 ]
  <2Theta>   <   I   >
     4.0000       194
     4.2200       178
     4.4400       174
     4.6600       182
     4.8800       174
     5.1000       176
     5.3200       158
     5.5400       158
     5.7600       160
     5.9800       152
     6.2000       162
     6.4200       158
     6.6400       146
     6.8600        98
     7.0800       120
     7.3000       136
     7.5200       114
     7.7400       112
     7.9600       128
     8.1800       120
     8.4000       104
     8.6200       144
     8.8400       116
     9.0600       104
     9.2800       104
     9.5000       120
     9.7200       116
     9.9400       116
    10.1600       118
    10.3800       120
    10.6000       112
    10.8200       108
    11.0400       104
    11.2600        98
    11.4800       102
    11.7000        86
    11.9200        96
    12.1400        74
    12.3600        68
    12.5800        84
    12.8000        84
    13.0200        80
    13.2400        50
    13.4600        64
    13.6800        62
    13.9000        82
    14.1200        90
    14.3400        82
    14.5600        70
    14.7800        60
    15.0000        44
    15.2200        70
    15.4400        62
    15.6600        64
    15.8800        52
    16.1000        62
    16.3200        58
    16.5400        52
    16.7600        64
    16.9800        58
    17.2000        56
    17.4200        72
    17.6400        64
    17.8600        56
    18.0800        62
    18.3000        60
    18.5200        64
    18.7400        54
    18.9600        62
    19.1800        62
    19.4000        42
    19.6200        50
    19.8400        46
    20.0600        68
    20.2800        66
    20.5000       100
    20.7200       684
    20.9400       136
    21.1600       164
    21.3800        88
    21.6000        70
    21.8200        52
    22.0400        52
    22.2600        42
    22.4800        34
    22.7000        44
    22.9200        48
    23.1400        46
    23.3600        44
    23.5800        44
    23.8000        54
    24.0200        52
    24.2400        46
    24.4600        46
    24.6800        46
    24.9000        46
    25.1200        48
    25.3400        50
    25.5600        60
    25.7800        58
    26.0000        88
    26.2200       176
    26.4400      1158
    26.6600       550
    26.8800        68
    27.1000        48
    27.3200        44
    27.5400        42
    27.7600        40
    27.9800        28
    28.2000        40
    28.4200        44
    28.6400        40
    28.8600        40
    29.0800        40
    29.3000        40
    29.5200        32
    29.7400        50
    29.9600        42
    30.1800        40
    30.4000        26
    30.6200        42
    30.8400        36
    31.0600        36
    31.2800        28
    31.5000        38
    31.7200        38
    31.9400        48
    32.1600        52
    32.3800        36
    32.6000        70
    32.8200        70
    33.0400       110
    33.2600       114
    33.4800        62
    33.7000        56
    33.9200        52
    34.1400        36
    34.3600        60
    34.5800        84
    34.8000        72
    35.0200        50
    35.2400        60
    35.4600        72
    35.6800        86
    35.9000        74
    36.1200        82
    36.3400       194
    36.5600       250
    36.7800        84
    37.0000        48
    37.2200        38
    37.4400        40
    37.6600        26
    37.8800        28
    38.1000        48
    38.3200        32
    38.5400        46
    38.7600        28
    38.9800        38
    39.2000        60
    39.4200       136
    39.6400        50
    39.8600        76
    40.0800        72
    40.3000        86
    40.5200        46
    40.7400        36
    40.9600        60
    41.1800        50
    41.4000        50
    41.6200        24
    41.8400        26
    42.0600        38
    42.2800       190
    42.5000        58
    42.7200        38
    42.9400        26
    43.1600        44
    43.3800        36
    43.6000        28
    43.8200        34
    44.0400        32
    44.2600        36
    44.4800        26
    44.7000        24
    44.9200        36
    45.1400        44
    45.3600        26
    45.5800        54
    45.8000        94
    46.0200        30
    46.2400        28
    46.4600        26
    46.6800        28
    46.9000        34
    47.1200        44
    47.3400        36
    47.5600        36
    47.7800        34
    48.0000        32
    48.2200        32
    48.4400        34
    48.6600        28
    48.8800        42
    49.1000        42
    49.3200        46
    49.5400        30
    49.7600        50
    49.9800       410
    50.2000       164
    50.4200        50
    50.6400        30
    50.8600        28
    51.0800        42
    51.3000        40
    51.5200        24
    51.7400        38
    51.9600        28
    52.1800        26
    52.4000        26
    52.6200        40
    52.8400        72
    53.0600        82
    53.2800        58
    53.5000        60
    53.7200        62
    53.9400        56
    54.1600        50
    54.3800        56
    54.6000        56
    54.8200       140
    55.0400        52
    55.2600        58
    55.4800        34
    55.7000        22
    55.9200        32
    56.1400        34
    56.3600        28
    56.5800        34
    56.8000        32
    57.0200        40
    57.2400        46
    57.4600        48
    57.6800        50
    57.9000        30
    58.1200        42
    58.3400        40
    58.5600        48
    58.7800        60
    59.0000        68
    59.2200        50
    59.4400        38
    59.6600        54
    59.8800       280
    60.1000        72
    60.3200        36
    60.5400        24
    60.7600        40
    60.9800        54
    61.2000        44
    61.4200        54
    61.6400        30
    61.8600        42
    62.0800        46
    62.3000        42
    62.5200        28
    62.7400        40
    62.9600        42
    63.1800        42
    63.4000        36
    63.6200        44
    63.8400        82
    64.0600        80
    64.2800        30
    64.5000        36
    64.7200        34
    64.9400        32
    65.0000        26

File: WS416-Fluorapatite.txt
/////////////////////////////////////////////////////////////////////////////////
/// Profile Data Ascii Dump (XRD)                                             ///
/////////////////////////////////////////////////////////////////////////////////

  Group     : Swayze
  Data      : WS416
  File Name : WS416.RAW

# Profile Datafile
          comment             = Fluorapatite
          date & time         = 08-04-08 09:29:58

# Measurement Condition
    X-ray tube
          target              = Cu
          voltage             = 40.0 (kV)
          current             = 30.0 (mA)
    Slits
          divergence slit     = 2.00000 (deg)
          scatter slit        = 2.00000 (deg)
          receiving slit      = 0.15000 (mm)
    Scanning
          drive axis          = Theta-2Theta
          scan range          =    4.000 -   65.000
          scan mode           = Continuous Scan
          scan speed          =   2.0000 (deg/min)
          sampling pitch      =   0.0200 (deg)
          preset time         =   0.60 (sec)

# Data      [ Total No. = 3051 ]
  <2Theta>   <   I   >
     4.0000       194
     4.2200       186
     4.4400       144
     4.6600       152
     4.8800       150
     5.1000       130
     5.3200       130
     5.5400       156
     5.7600       146
     5.9800       156
     6.2000       152
     6.4200       128
     6.6400       118
     6.8600       114
     7.0800       110
     7.3000       100
     7.5200        78
     7.7400        96
     7.9600       102
     8.1800       112
     8.4000       108
     8.6200       116
     8.8400       100
     9.0600       114
     9.2800        96
     9.5000        96
     9.7200       108
     9.9400       104
    10.1600        84
    10.3800       122
    10.6000        74
    10.8200        96
    11.0400       106
    11.2600        72
    11.4800        66
    11.7000        58
    11.9200        66
    12.1400        76
    12.3600        76
    12.5800        78
    12.8000        74
    13.0200        70
    13.2400        72
    13.4600        56
    13.6800        64
    13.9000        46
    14.1200        64
    14.3400        56
    14.5600        60
    14.7800        60
    15.0000        58
    15.2200        46
    15.4400        42
    15.6600        46
    15.8800        72
    16.1000        46
    16.3200        36
    16.5400        44
    16.7600        42
    16.9800        46
    17.2000        40
    17.4200        40
    17.6400        36
    17.8600        36
    18.0800        44
    18.3000        40
    18.5200        30
    18.7400        46
    18.9600        34
    19.1800        52
    19.4000        46
    19.6200        36
    19.8400        36
    20.0600        38
    20.2800        36
    20.5000        32
    20.7200        34
    20.9400        42
    21.1600        50
    21.3800        30
    21.6000        46
    21.8200        68
    22.0400       110
    22.2600        38
    22.4800        36
    22.7000        32
    22.9200        52
    23.1400        20
    23.3600        26
    23.5800        34
    23.8000        22
    24.0200        24
    24.2400        32
    24.4600        38
    24.6800        26
    24.9000        34
    25.1200        22
    25.3400        34
    25.5600        50
    25.7800       128
    26.0000        48
    26.2200        20
    26.4400        24
    26.6600        28
    26.8800        20
    27.1000        32
    27.3200        28
    27.5400        24
    27.7600        30
    27.9800        40
    28.2000        40
    28.4200        20
    28.6400        26
    28.8600        28
    29.0800        60
    29.3000        52
    29.5200        26
    29.7400        16
    29.9600        20
    30.1800        16
    30.4000        24
    30.6200        30
    30.8400        20
    31.0600        26
    31.2800        24
    31.5000        42
    31.7200       198
    31.9400       176
    32.1600       162
    32.3800        54
    32.6000        36
    32.8200       136
    33.0400       278
    33.2600      1360
    33.4800        32
    33.7000        18
    33.9200        44
    34.1400       114
    34.3600        30
    34.5800        14
    34.8000        26
    35.0200        30
    35.2400        14
    35.4600        36
    35.6800        38
    35.9000        18
    36.1200        14
    36.3400        14
    36.5600        22
    36.7800        16
    37.0000        14
    37.2200        16
    37.4400        18
    37.6600        16
    37.8800        20
    38.1000        12
    38.3200        22
    38.5400        26
    38.7600        22
    38.9800        18
    39.2000        60
    39.4200        34
    39.6400        30
    39.8600       146
    40.0800        58
    40.3000        22
    40.5200        52
    40.7400        22
    40.9600        10
    41.1800        20
    41.4000        24
    41.6200        14
    41.8400        26
    42.0600        44
    42.2800        22
    42.5000        30
    42.7200        16
    42.9400        16
    43.1600        18
    43.3800        12
    43.6000        18
    43.8200        36
    44.0400        22
    44.2600        20
    44.4800        18
    44.7000        14
    44.9200        22
    45.1400        24
    45.3600        62
    45.5800        22
    45.8000        14
    46.0200        22
    46.2400        18
    46.4600        10
    46.6800        60
    46.9000        68
    47.1200        24
    47.3400        14
    47.5600        22
    47.7800        20
    48.0000        14
    48.2200        52
    48.4400        18
    48.6600        34
    48.8800        50
    49.1000        22
    49.3200        52
    49.5400       248
    49.7600        28
    49.9800        10
    50.2000        28
    50.4200        24
    50.6400       102
    50.8600        36
    51.0800        22
    51.3000        32
    51.5200        60
    51.7400        18
    51.9600        20
    52.1800       124
    52.4000        42
    52.6200        20
    52.8400        22
    53.0600        34
    53.2800        78
    53.5000        44
    53.7200        16
    53.9400        10
    54.1600        24
    54.3800        22
    54.6000        14
    54.8200        24
    55.0400        20
    55.2600        12
    55.4800        16
    55.7000        20
    55.9200        66
    56.1400        60
    56.3600        26
    56.5800        16
    56.8000        22
    57.0200        12
    57.2400        28
    57.4600        24
    57.6800        18
    57.9000        20
    58.1200        22
    58.3400        54
    58.5600        30
    58.7800        20
    59.0000        24
    59.2200        20
    59.4400        18
    59.6600        18
    59.8800        18
    60.1000       120
    60.3200        38
    60.5400        28
    60.7600        32
    60.9800        18
    61.2000        16
    61.4200        20
    61.6400        36
    61.8600        48
    62.0800        30
    62.3000        16
    62.5200        18
    62.7400        18
    62.9600        22
    63.1800        94
    63.4000        38
    63.6200        12
    63.8400        22
    64.0600        38
    64.2800        54
    64.5000        30
    64.7200        24
    64.9400        20
    65.0000        16