Folder: spectroscopy-tetracorder/sl1/usgs/library06/DESCRIPT/new_xrd_results_to_be_added/Rhonda_Driscoll_xrd_runs (part 7)

File: GDS80---Syn-Lepidocrocite.txt
/////////////////////////////////////////////////////////////////////////////////
/// Profile Data Ascii Dump (XRD)                                             ///
/////////////////////////////////////////////////////////////////////////////////

  Group     : Swayze
  Data      : GDS80
  File Name : GDS80.RAW

# Profile Datafile
          comment             = Syn Lepidocrosite
          date & time         = 08-04-14 08:55:48

# Measurement Condition
    X-ray tube
          target              = Cu
          voltage             = 40.0 (kV)
          current             = 30.0 (mA)
    Slits
          divergence slit     = 2.00000 (deg)
          scatter slit        = 2.00000 (deg)
          receiving slit      = 0.15000 (mm)
    Scanning
          drive axis          = Theta-2Theta
          scan range          =    4.000 -   65.000
          scan mode           = Continuous Scan
          scan speed          =   2.0000 (deg/min)
          sampling pitch      =   0.0200 (deg)
          preset time         =   0.60 (sec)

# Data      [ Total No. = 3051 ]
  <2Theta>   <   I   >
     4.0000       180
     4.2200       190
     4.4400       220
     4.6600       176
     4.8800       160
     5.1000       148
     5.3200       152
     5.5400       142
     5.7600       146
     5.9800       168
     6.2000       150
     6.4200       132
     6.6400       128
     6.8600       138
     7.0800       130
     7.3000       116
     7.5200       116
     7.7400       108
     7.9600       110
     8.1800       116
     8.4000       118
     8.6200       116
     8.8400       116
     9.0600       110
     9.2800       114
     9.5000       116
     9.7200       108
     9.9400       130
    10.1600       106
    10.3800       108
    10.6000       108
    10.8200       108
    11.0400        84
    11.2600        84
    11.4800        88
    11.7000        86
    11.9200        68
    12.1400        70
    12.3600        86
    12.5800        80
    12.8000        72
    13.0200        76
    13.2400        78
    13.4600        98
    13.6800        90
    13.9000       114
    14.1200       108
    14.3400        78
    14.5600        68
    14.7800        80
    15.0000        76
    15.2200        64
    15.4400        70
    15.6600        54
    15.8800        56
    16.1000        68
    16.3200        46
    16.5400        62
    16.7600        62
    16.9800        62
    17.2000        52
    17.4200        72
    17.6400        80
    17.8600        70
    18.0800        54
    18.3000        54
    18.5200        52
    18.7400        60
    18.9600        50
    19.1800        64
    19.4000        52
    19.6200        52
    19.8400        50
    20.0600        50
    20.2800        72
    20.5000        92
    20.7200       126
    20.9400       176
    21.1600       140
    21.3800       130
    21.6000        90
    21.8200        76
    22.0400        58
    22.2600        48
    22.4800        52
    22.7000        46
    22.9200        34
    23.1400        54
    23.3600        42
    23.5800        56
    23.8000        54
    24.0200        42
    24.2400        62
    24.4600        46
    24.6800        40
    24.9000        38
    25.1200        44
    25.3400        42
    25.5600        46
    25.7800        52
    26.0000        70
    26.2200        70
    26.4400        56
    26.6600        64
    26.8800        92
    27.1000        86
    27.3200        72
    27.5400        40
    27.7600        40
    27.9800        46
    28.2000        52
    28.4200        52
    28.6400        28
    28.8600        44
    29.0800        36
    29.3000        32
    29.5200        42
    29.7400        46
    29.9600        48
    30.1800        40
    30.4000        30
    30.6200        36
    30.8400        40
    31.0600        36
    31.2800        38
    31.5000        48
    31.7200        36
    31.9400        46
    32.1600        40
    32.3800        52
    32.6000        58
    32.8200        96
    33.0400       112
    33.2600       112
    33.4800        64
    33.7000        48
    33.9200        68
    34.1400        46
    34.3600        68
    34.5800       108
    34.8000        64
    35.0200        58
    35.2400        70
    35.4600        62
    35.6800        84
    35.9000       112
    36.1200       180
    36.3400       214
    36.5600       204
    36.7800       112
    37.0000        76
    37.2200        66
    37.4400        56
    37.6600        52
    37.8800        58
    38.1000        62
    38.3200        42
    38.5400        60
    38.7600        54
    38.9800        40
    39.2000        38
    39.4200        52
    39.6400        66
    39.8600        76
    40.0800        46
    40.3000        56
    40.5200        42
    40.7400        48
    40.9600        76
    41.1800        68
    41.4000        44
    41.6200        42
    41.8400        50
    42.0600        32
    42.2800        40
    42.5000        42
    42.7200        48
    42.9400        36
    43.1600        54
    43.3800        26
    43.6000        44
    43.8200        32
    44.0400        40
    44.2600        34
    44.4800        38
    44.7000        30
    44.9200        50
    45.1400        46
    45.3600        38
    45.5800        40
    45.8000        30
    46.0200        42
    46.2400        46
    46.4600        66
    46.6800        88
    46.9000        54
    47.1200        62
    47.3400        56
    47.5600        48
    47.7800        38
    48.0000        34
    48.2200        40
    48.4400        46
    48.6600        32
    48.8800        40
    49.1000        42
    49.3200        48
    49.5400        34
    49.7600        42
    49.9800        46
    50.2000        52
    50.4200        56
    50.6400        28
    50.8600        44
    51.0800        40
    51.3000        36
    51.5200        34
    51.7400        44
    51.9600        38
    52.1800        48
    52.4000        56
    52.6200        82
    52.8400       100
    53.0600       104
    53.2800        82
    53.5000        58
    53.7200        62
    53.9400        64
    54.1600        54
    54.3800        46
    54.6000        54
    54.8200        38
    55.0400        38
    55.2600        48
    55.4800        42
    55.7000        50
    55.9200        36
    56.1400        42
    56.3600        34
    56.5800        38
    56.8000        46
    57.0200        52
    57.2400        36
    57.4600        42
    57.6800        38
    57.9000        36
    58.1200        32
    58.3400        32
    58.5600        48
    58.7800        72
    59.0000        84
    59.2200        60
    59.4400        50
    59.6600        54
    59.8800        54
    60.1000        60
    60.3200        64
    60.5400        54
    60.7600        56
    60.9800        74
    61.2000        78
    61.4200        52
    61.6400        50
    61.8600        42
    62.0800        40
    62.3000        46
    62.5200        36
    62.7400        38
    62.9600        38
    63.1800        38
    63.4000        42
    63.6200        56
    63.8400        58
    64.0600        68
    64.2800        38
    64.5000        34
    64.7200        40
    64.9400        48
    65.0000        42

File: GDS108-Muscovite.txt
/////////////////////////////////////////////////////////////////////////////////
/// Profile Data Ascii Dump (XRD)                                             ///
/////////////////////////////////////////////////////////////////////////////////

  Group     : Swayze
  Data      : GDS108
  File Name : GDS108.RAW

# Profile Datafile
          comment             = Muscovite
          date & time         = 08-04-29 06:41:57

# Measurement Condition
    X-ray tube
          target              = Cu
          voltage             = 40.0 (kV)
          current             = 30.0 (mA)
    Slits
          divergence slit     = 2.00000 (deg)
          scatter slit        = 2.00000 (deg)
          receiving slit      = 0.15000 (mm)
    Scanning
          drive axis          = Theta-2Theta
          scan range          =    4.000 -   65.000
          scan mode           = Continuous Scan
          scan speed          =   2.0000 (deg/min)
          sampling pitch      =   0.0200 (deg)
          preset time         =   0.60 (sec)

# Data      [ Total No. = 3051 ]
  <2Theta>   <   I   >
     4.0000       188
     4.2200       186
     4.4400       218
     4.6600       168
     4.8800       188
     5.1000       160
     5.3200       188
     5.5400       168
     5.7600       190
     5.9800       172
     6.2000       170
     6.4200       162
     6.6400       160
     6.8600       136
     7.0800       108
     7.3000       158
     7.5200       122
     7.7400       120
     7.9600       146
     8.1800       160
     8.4000       190
     8.6200       446
     8.8400      3546
     9.0600       196
     9.2800       124
     9.5000       134
     9.7200       110
     9.9400       114
    10.1600       102
    10.3800        98
    10.6000       116
    10.8200        82
    11.0400       102
    11.2600        88
    11.4800       118
    11.7000        82
    11.9200        90
    12.1400        94
    12.3600       108
    12.5800        90
    12.8000        82
    13.0200        68
    13.2400        66
    13.4600        88
    13.6800        78
    13.9000        66
    14.1200        66
    14.3400        62
    14.5600        68
    14.7800        58
    15.0000        70
    15.2200        70
    15.4400        54
    15.6600        48
    15.8800        60
    16.1000        58
    16.3200        72
    16.5400        70
    16.7600        60
    16.9800        52
    17.2000        80
    17.4200       148
    17.6400       670
    17.8600       402
    18.0800        66
    18.3000        54
    18.5200       102
    18.7400        56
    18.9600        56
    19.1800        58
    19.4000        54
    19.6200        64
    19.8400       108
    20.0600        78
    20.2800        66
    20.5000        58
    20.7200        60
    20.9400        54
    21.1600        56
    21.3800        52
    21.6000        62
    21.8200        42
    22.0400        56
    22.2600        64
    22.4800        64
    22.7000        68
    22.9200        56
    23.1400        50
    23.3600        46
    23.5800        56
    23.8000        94
    24.0200        74
    24.2400        38
    24.4600        46
    24.6800        54
    24.9000        72
    25.1200        68
    25.3400        98
    25.5600       126
    25.7800        94
    26.0000        82
    26.2200       118
    26.4400       454
    26.6600      4024
    26.8800      1672
    27.1000       168
    27.3200        84
    27.5400       106
    27.7600       102
    27.9800        70
    28.2000        60
    28.4200        46
    28.6400        62
    28.8600        58
    29.0800        50
    29.3000        42
    29.5200        58
    29.7400       124
    29.9600        82
    30.1800        54
    30.4000        50
    30.6200        42
    30.8400        58
    31.0600        98
    31.2800       124
    31.5000        48
    31.7200        48
    31.9400        92
    32.1600        68
    32.3800        40
    32.6000        42
    32.8200        42
    33.0400        32
    33.2600        28
    33.4800        42
    33.7000        32
    33.9200        32
    34.1400        44
    34.3600        48
    34.5800        56
    34.8000        86
    35.0200       116
    35.2400        68
    35.4600        60
    35.6800       124
    35.9000      1010
    36.1200       122
    36.3400        52
    36.5600        56
    36.7800        44
    37.0000        36
    37.2200        48
    37.4400        38
    37.6600        40
    37.8800        42
    38.1000        34
    38.3200        36
    38.5400        18
    38.7600        34
    38.9800        24
    39.2000        36
    39.4200        28
    39.6400        28
    39.8600        48
    40.0800        26
    40.3000        30
    40.5200        34
    40.7400        60
    40.9600        32
    41.1800        28
    41.4000        28
    41.6200        36
    41.8400        48
    42.0600        48
    42.2800        64
    42.5000        48
    42.7200        44
    42.9400        44
    43.1600        38
    43.3800        30
    43.6000        38
    43.8200        28
    44.0400        46
    44.2600        58
    44.4800        56
    44.7000        56
    44.9200       106
    45.1400       492
    45.3600      4822
    45.5800       422
    45.8000        94
    46.0200        88
    46.2400        60
    46.4600        48
    46.6800        52
    46.9000        24
    47.1200        38
    47.3400        30
    47.5600        38
    47.7800        36
    48.0000        36
    48.2200        30
    48.4400        20
    48.6600        34
    48.8800        28
    49.1000        28
    49.3200        36
    49.5400        18
    49.7600        42
    49.9800        30
    50.2000        30
    50.4200        22
    50.6400        28
    50.8600        30
    51.0800        28
    51.3000        40
    51.5200        24
    51.7400        32
    51.9600        30
    52.1800        28
    52.4000        24
    52.6200        52
    52.8400        34
    53.0600        36
    53.2800        28
    53.5000        42
    53.7200        32
    53.9400        30
    54.1600        30
    54.3800        30
    54.6000        32
    54.8200        42
    55.0400        86
    55.2600        78
    55.4800        54
    55.7000        66
    55.9200        46
    56.1400        44
    56.3600        34
    56.5800        42
    56.8000        28
    57.0200        24
    57.2400        34
    57.4600        26
    57.6800        34
    57.9000        26
    58.1200        40
    58.3400        24
    58.5600        24
    58.7800        34
    59.0000        30
    59.2200        30
    59.4400        38
    59.6600        24
    59.8800        36
    60.1000        30
    60.3200        48
    60.5400        42
    60.7600        42
    60.9800        50
    61.2000        36
    61.4200        28
    61.6400        36
    61.8600        50
    62.0800        48
    62.3000        32
    62.5200        26
    62.7400        30
    62.9600        32
    63.1800        32
    63.4000        32
    63.6200        24
    63.8400        62
    64.0600        56
    64.2800        32
    64.5000        28
    64.7200        38
    64.9400        36
    65.0000        58

File: GDS113-Muscovite.txt
/////////////////////////////////////////////////////////////////////////////////
/// Profile Data Ascii Dump (XRD)                                             ///
/////////////////////////////////////////////////////////////////////////////////

  Group     : Swayze
  Data      : GDS113
  File Name : GDS113.RAW

# Profile Datafile
          comment             = Muscovite
          date & time         = 08-04-09 07:20:19

# Measurement Condition
    X-ray tube
          target              = Cu
          voltage             = 40.0 (kV)
          current             = 30.0 (mA)
    Slits
          divergence slit     = 2.00000 (deg)
          scatter slit        = 2.00000 (deg)
          receiving slit      = 0.15000 (mm)
    Scanning
          drive axis          = Theta-2Theta
          scan range          =    4.000 -   65.000
          scan mode           = Continuous Scan
          scan speed          =   2.0000 (deg/min)
          sampling pitch      =   0.0200 (deg)
          preset time         =   0.60 (sec)

# Data      [ Total No. = 3051 ]
  <2Theta>   <   I   >
     4.0000       200
     4.2200       196
     4.4400       190
     4.6600       160
     4.8800       162
     5.1000       162
     5.3200       168
     5.5400       160
     5.7600       180
     5.9800       142
     6.2000       142
     6.4200       148
     6.6400       136
     6.8600       128
     7.0800       122
     7.3000       108
     7.5200       124
     7.7400       124
     7.9600       116
     8.1800       158
     8.4000       310
     8.6200       952
     8.8400      6936
     9.0600       232
     9.2800       136
     9.5000       118
     9.7200        94
     9.9400       118
    10.1600        90
    10.3800        98
    10.6000        86
    10.8200        96
    11.0400        74
    11.2600        94
    11.4800        76
    11.7000        88
    11.9200        94
    12.1400        90
    12.3600        64
    12.5800        72
    12.8000        94
    13.0200        98
    13.2400        78
    13.4600        76
    13.6800        54
    13.9000        74
    14.1200        54
    14.3400        96
    14.5600        78
    14.7800        78
    15.0000        70
    15.2200        62
    15.4400        60
    15.6600        50
    15.8800        66
    16.1000        58
    16.3200        64
    16.5400        56
    16.7600        66
    16.9800        54
    17.2000       106
    17.4200       286
    17.6400      3206
    17.8600       246
    18.0800        60
    18.3000        94
    18.5200        52
    18.7400        54
    18.9600        54
    19.1800        56
    19.4000        60
    19.6200        94
    19.8400       148
    20.0600        78
    20.2800        60
    20.5000        58
    20.7200        70
    20.9400        58
    21.1600        54
    21.3800        64
    21.6000        64
    21.8200        52
    22.0400        52
    22.2600        56
    22.4800        48
    22.7000        92
    22.9200        96
    23.1400        48
    23.3600        54
    23.5800       106
    23.8000       120
    24.0200        88
    24.2400        40
    24.4600        52
    24.6800        56
    24.9000        74
    25.1200        84
    25.3400       226
    25.5600       186
    25.7800       106
    26.0000       116
    26.2200       198
    26.4400       882
    26.6600     12108
    26.8800       944
    27.1000       150
    27.3200        98
    27.5400       120
    27.7600       298
    27.9800        80
    28.2000        68
    28.4200        84
    28.6400        46
    28.8600        42
    29.0800        52
    29.3000        44
    29.5200        86
    29.7400       356
    29.9600        94
    30.1800        56
    30.4000        28
    30.6200        48
    30.8400        66
    31.0600       216
    31.2800       148
    31.5000        46
    31.7200        70
    31.9400       270
    32.1600        68
    32.3800        40
    32.6000        48
    32.8200        32
    33.0400        34
    33.2600        46
    33.4800        40
    33.7000        40
    33.9200        30
    34.1400        48
    34.3600        90
    34.5800       134
    34.8000       226
    35.0200       198
    35.2400        50
    35.4600        74
    35.6800       222
    35.9000      1554
    36.1200       106
    36.3400        92
    36.5600        56
    36.7800        54
    37.0000        46
    37.2200        58
    37.4400        66
    37.6600       108
    37.8800        72
    38.1000        42
    38.3200        26
    38.5400        28
    38.7600        32
    38.9800        26
    39.2000        28
    39.4200        32
    39.6400        38
    39.8600        32
    40.0800        50
    40.3000        38
    40.5200        52
    40.7400        70
    40.9600        60
    41.1800        50
    41.4000        44
    41.6200        54
    41.8400        72
    42.0600       102
    42.2800       108
    42.5000        94
    42.7200        50
    42.9400        34
    43.1600        48
    43.3800        62
    43.6000        52
    43.8200        68
    44.0400        66
    44.2600        80
    44.4800        72
    44.7000        98
    44.9200       128
    45.1400       868
    45.3600      5984
    45.5800       404
    45.8000       124
    46.0200       106
    46.2400        62
    46.4600        70
    46.6800        44
    46.9000        32
    47.1200        36
    47.3400        36
    47.5600        40
    47.7800        28
    48.0000        48
    48.2200        46
    48.4400        38
    48.6600        38
    48.8800        30
    49.1000        32
    49.3200        34
    49.5400        36
    49.7600        40
    49.9800        38
    50.2000        30
    50.4200        24
    50.6400        32
    50.8600        26
    51.0800        30
    51.3000        36
    51.5200        28
    51.7400        24
    51.9600        26
    52.1800        36
    52.4000        50
    52.6200        66
    52.8400        90
    53.0600        42
    53.2800        34
    53.5000        44
    53.7200        40
    53.9400        38
    54.1600        48
    54.3800        30
    54.6000        38
    54.8200        58
    55.0400       144
    55.2600       122
    55.4800        94
    55.7000       194
    55.9200       104
    56.1400        58
    56.3600        54
    56.5800        42
    56.8000        36
    57.0200        42
    57.2400        42
    57.4600        70
    57.6800        40
    57.9000        36
    58.1200        28
    58.3400        32
    58.5600        30
    58.7800        36
    59.0000        46
    59.2200        62
    59.4400        44
    59.6600        44
    59.8800        38
    60.1000        42
    60.3200        66
    60.5400       122
    60.7600       118
    60.9800        84
    61.2000        80
    61.4200        78
    61.6400        92
    61.8600        98
    62.0800        64
    62.3000        52
    62.5200        30
    62.7400        48
    62.9600        44
    63.1800        42
    63.4000        34
    63.6200        28
    63.8400       112
    64.0600        94
    64.2800        34
    64.5000        26
    64.7200        38
    64.9400        54
    65.0000        56