Folder: spectroscopy-tetracorder/sl1/usgs/library06/DESCRIPT/new_xrd_results_to_be_added/Rhonda_Driscoll_xrd_runs (part 10)

File: GDS184---Roscoelite.txt
/////////////////////////////////////////////////////////////////////////////////
/// Profile Data Ascii Dump (XRD)                                             ///
/////////////////////////////////////////////////////////////////////////////////

  Group     : Swayze
  Data      : GDS184
  File Name : GDS184.RAW

# Profile Datafile
          comment             = Roscoelite
          date & time         = 08-04-14 09:26:47

# Measurement Condition
    X-ray tube
          target              = Cu
          voltage             = 40.0 (kV)
          current             = 30.0 (mA)
    Slits
          divergence slit     = 2.00000 (deg)
          scatter slit        = 2.00000 (deg)
          receiving slit      = 0.15000 (mm)
    Scanning
          drive axis          = Theta-2Theta
          scan range          =    4.000 -   65.000
          scan mode           = Continuous Scan
          scan speed          =   2.0000 (deg/min)
          sampling pitch      =   0.0200 (deg)
          preset time         =   0.60 (sec)

# Data      [ Total No. = 3051 ]
  <2Theta>   <   I   >
     4.0000       182
     4.2200       168
     4.4400       164
     4.6600       166
     4.8800       174
     5.1000       178
     5.3200       146
     5.5400       184
     5.7600       164
     5.9800       152
     6.2000       178
     6.4200       136
     6.6400       138
     6.8600       142
     7.0800       120
     7.3000       122
     7.5200       110
     7.7400       116
     7.9600       132
     8.1800       146
     8.4000       186
     8.6200       374
     8.8400      2308
     9.0600       160
     9.2800       116
     9.5000       106
     9.7200       106
     9.9400       108
    10.1600       114
    10.3800        88
    10.6000        92
    10.8200       100
    11.0400        96
    11.2600        96
    11.4800        84
    11.7000        78
    11.9200        76
    12.1400        72
    12.3600        84
    12.5800        64
    12.8000        64
    13.0200        68
    13.2400        54
    13.4600        62
    13.6800        60
    13.9000        56
    14.1200        70
    14.3400        58
    14.5600        58
    14.7800        50
    15.0000        66
    15.2200        48
    15.4400        58
    15.6600        56
    15.8800        48
    16.1000        60
    16.3200        52
    16.5400        58
    16.7600        54
    16.9800        38
    17.2000        40
    17.4200        58
    17.6400        84
    17.8600        78
    18.0800        32
    18.3000        42
    18.5200        56
    18.7400        62
    18.9600        56
    19.1800        64
    19.4000        74
    19.6200        56
    19.8400        54
    20.0600        64
    20.2800        64
    20.5000        44
    20.7200        48
    20.9400        58
    21.1600        40
    21.3800        64
    21.6000        52
    21.8200        60
    22.0400        54
    22.2600        44
    22.4800        50
    22.7000        56
    22.9200        82
    23.1400        52
    23.3600        80
    23.5800        68
    23.8000        58
    24.0200        64
    24.2400       124
    24.4600        72
    24.6800        74
    24.9000        46
    25.1200        64
    25.3400        64
    25.5600        78
    25.7800        58
    26.0000        66
    26.2200       102
    26.4400       370
    26.6600      3188
    26.8800       574
    27.1000        76
    27.3200        56
    27.5400        94
    27.7600        72
    27.9800        60
    28.2000        50
    28.4200        68
    28.6400       116
    28.8600        92
    29.0800        46
    29.3000        40
    29.5200        40
    29.7400        48
    29.9600        52
    30.1800        44
    30.4000        52
    30.6200       124
    30.8400        94
    31.0600        44
    31.2800        44
    31.5000        46
    31.7200        38
    31.9400        46
    32.1600        44
    32.3800        36
    32.6000        50
    32.8200        44
    33.0400        66
    33.2600       158
    33.4800        72
    33.7000        44
    33.9200        84
    34.1400        54
    34.3600        56
    34.5800        74
    34.8000        46
    35.0200        58
    35.2400        38
    35.4600        60
    35.6800        80
    35.9000       392
    36.1200        52
    36.3400        56
    36.5600       110
    36.7800        50
    37.0000        50
    37.2200        62
    37.4400        66
    37.6600        28
    37.8800        18
    38.1000        56
    38.3200        42
    38.5400        40
    38.7600        32
    38.9800        30
    39.2000        32
    39.4200        48
    39.6400        60
    39.8600        42
    40.0800        40
    40.3000        44
    40.5200        60
    40.7400        68
    40.9600        52
    41.1800        54
    41.4000        30
    41.6200        52
    41.8400        54
    42.0600        38
    42.2800        40
    42.5000        38
    42.7200        38
    42.9400        26
    43.1600        46
    43.3800        28
    43.6000        30
    43.8200        30
    44.0400        32
    44.2600        28
    44.4800        18
    44.7000        28
    44.9200        74
    45.1400       238
    45.3600       710
    45.5800       114
    45.8000        54
    46.0200        42
    46.2400        42
    46.4600        38
    46.6800        38
    46.9000        36
    47.1200        28
    47.3400        30
    47.5600        28
    47.7800        26
    48.0000        30
    48.2200        18
    48.4400        26
    48.6600        34
    48.8800        30
    49.1000        30
    49.3200        30
    49.5400        26
    49.7600        30
    49.9800        30
    50.2000        44
    50.4200        26
    50.6400        38
    50.8600        26
    51.0800        34
    51.3000        28
    51.5200        28
    51.7400        32
    51.9600        28
    52.1800        22
    52.4000        30
    52.6200        30
    52.8400        40
    53.0600        38
    53.2800        22
    53.5000        24
    53.7200        34
    53.9400        46
    54.1600        42
    54.3800        40
    54.6000        66
    54.8200        78
    55.0400       210
    55.2600        76
    55.4800        46
    55.7000        50
    55.9200        30
    56.1400        30
    56.3600        42
    56.5800        26
    56.8000        38
    57.0200        28
    57.2400        36
    57.4600        44
    57.6800        44
    57.9000        40
    58.1200        28
    58.3400        40
    58.5600        28
    58.7800        30
    59.0000        32
    59.2200        26
    59.4400        28
    59.6600        32
    59.8800        44
    60.1000        58
    60.3200        34
    60.5400        54
    60.7600        56
    60.9800        56
    61.2000        34
    61.4200        44
    61.6400        46
    61.8600        42
    62.0800        52
    62.3000        44
    62.5200        44
    62.7400        38
    62.9600        34
    63.1800        28
    63.4000        34
    63.6200        36
    63.8400        32
    64.0600        30
    64.2800        30
    64.5000        44
    64.7200        30
    64.9400        52
    65.0000        52

File: GDS188-Saponite.txt
/////////////////////////////////////////////////////////////////////////////////
/// Profile Data Ascii Dump (XRD)                                             ///
/////////////////////////////////////////////////////////////////////////////////

  Group     : Swayze
  Data      : GDS188
  File Name : GDS188.RAW

# Profile Datafile
          comment             = Saponite
          date & time         = 08-04-28 08:20:18

# Measurement Condition
    X-ray tube
          target              = Cu
          voltage             = 40.0 (kV)
          current             = 30.0 (mA)
    Slits
          divergence slit     = 2.00000 (deg)
          scatter slit        = 2.00000 (deg)
          receiving slit      = 0.15000 (mm)
    Scanning
          drive axis          = Theta-2Theta
          scan range          =    4.000 -   65.000
          scan mode           = Continuous Scan
          scan speed          =   2.0000 (deg/min)
          sampling pitch      =   0.0200 (deg)
          preset time         =   0.60 (sec)

# Data      [ Total No. = 3051 ]
  <2Theta>   <   I   >
     4.0000       234
     4.2200       222
     4.4400       226
     4.6600       232
     4.8800       224
     5.1000       232
     5.3200       230
     5.5400       250
     5.7600       282
     5.9800       304
     6.2000       348
     6.4200       460
     6.6400       608
     6.8600       852
     7.0800      1440
     7.3000      1390
     7.5200       716
     7.7400       472
     7.9600       288
     8.1800       222
     8.4000       204
     8.6200       146
     8.8400       164
     9.0600       160
     9.2800       140
     9.5000       122
     9.7200       146
     9.9400       122
    10.1600       126
    10.3800       180
    10.6000       112
    10.8200        88
    11.0400       100
    11.2600        90
    11.4800        96
    11.7000        98
    11.9200        88
    12.1400        84
    12.3600        82
    12.5800        76
    12.8000        72
    13.0200       100
    13.2400        74
    13.4600        78
    13.6800       102
    13.9000        68
    14.1200        94
    14.3400       116
    14.5600       152
    14.7800       114
    15.0000        88
    15.2200        88
    15.4400        92
    15.6600        80
    15.8800        74
    16.1000        62
    16.3200        74
    16.5400        62
    16.7600        78
    16.9800        92
    17.2000        62
    17.4200        64
    17.6400        78
    17.8600        80
    18.0800        62
    18.3000        68
    18.5200        66
    18.7400        66
    18.9600       116
    19.1800       276
    19.4000       216
    19.6200       204
    19.8400       136
    20.0600       156
    20.2800       126
    20.5000       106
    20.7200       110
    20.9400       128
    21.1600       110
    21.3800       108
    21.6000       102
    21.8200        98
    22.0400       116
    22.2600       110
    22.4800       106
    22.7000       118
    22.9200        88
    23.1400       100
    23.3600       102
    23.5800        84
    23.8000        92
    24.0200        82
    24.2400        96
    24.4600        96
    24.6800       108
    24.9000        88
    25.1200        88
    25.3400        86
    25.5600        84
    25.7800        94
    26.0000        88
    26.2200       122
    26.4400       116
    26.6600       110
    26.8800       128
    27.1000       146
    27.3200       128
    27.5400       140
    27.7600       116
    27.9800       116
    28.2000       172
    28.4200       280
    28.6400       230
    28.8600       258
    29.0800       384
    29.3000       472
    29.5200       294
    29.7400       184
    29.9600       126
    30.1800       152
    30.4000        88
    30.6200        96
    30.8400       106
    31.0600        68
    31.2800        76
    31.5000       142
    31.7200       116
    31.9400        56
    32.1600        70
    32.3800        52
    32.6000        72
    32.8200        68
    33.0400        76
    33.2600        56
    33.4800        70
    33.7000       104
    33.9200       174
    34.1400       216
    34.3600       194
    34.5800       180
    34.8000       206
    35.0200       188
    35.2400       210
    35.4600       198
    35.6800       194
    35.9000       166
    36.1200       166
    36.3400       168
    36.5600       156
    36.7800       132
    37.0000       122
    37.2200       102
    37.4400       106
    37.6600       132
    37.8800       122
    38.1000       132
    38.3200       114
    38.5400       104
    38.7600       118
    38.9800       128
    39.2000       106
    39.4200       120
    39.6400       110
    39.8600        96
    40.0800        98
    40.3000        74
    40.5200        76
    40.7400        88
    40.9600        80
    41.1800        84
    41.4000        86
    41.6200        82
    41.8400       102
    42.0600       118
    42.2800       116
    42.5000        68
    42.7200        86
    42.9400        72
    43.1600        62
    43.3800        74
    43.6000        78
    43.8200        76
    44.0400        74
    44.2600       106
    44.4800        90
    44.7000        84
    44.9200       102
    45.1400       100
    45.3600       124
    45.5800        80
    45.8000        52
    46.0200        58
    46.2400        50
    46.4600        70
    46.6800        58
    46.9000        62
    47.1200        50
    47.3400        56
    47.5600        32
    47.7800        56
    48.0000        50
    48.2200        52
    48.4400        50
    48.6600        46
    48.8800        36
    49.1000        38
    49.3200        44
    49.5400        52
    49.7600        40
    49.9800        50
    50.2000        68
    50.4200        56
    50.6400        56
    50.8600        36
    51.0800        52
    51.3000        54
    51.5200        44
    51.7400        42
    51.9600        76
    52.1800        86
    52.4000        78
    52.6200       118
    52.8400        70
    53.0600        78
    53.2800        84
    53.5000        82
    53.7200        70
    53.9400        76
    54.1600        54
    54.3800        56
    54.6000        70
    54.8200        90
    55.0400        72
    55.2600        90
    55.4800        84
    55.7000        86
    55.9200        88
    56.1400        68
    56.3600        82
    56.5800        66
    56.8000        82
    57.0200        72
    57.2400        50
    57.4600        68
    57.6800        82
    57.9000        74
    58.1200        84
    58.3400        68
    58.5600        60
    58.7800        68
    59.0000        66
    59.2200        70
    59.4400        82
    59.6600        80
    59.8800        74
    60.1000       176
    60.3200       308
    60.5400       232
    60.7600       158
    60.9800       110
    61.2000        92
    61.4200       106
    61.6400        88
    61.8600        78
    62.0800        64
    62.3000        54
    62.5200        82
    62.7400        74
    62.9600        62
    63.1800        58
    63.4000        40
    63.6200        52
    63.8400        70
    64.0600        54
    64.2800        52
    64.5000        62
    64.7200        84
    64.9400        66
    65.0000        64

File: GDS209---SynAluniteH30-200C.txt
/////////////////////////////////////////////////////////////////////////////////
/// Profile Data Ascii Dump (XRD)                                             ///
/////////////////////////////////////////////////////////////////////////////////

  Group     : Swayze
  Data      : GDS209
  File Name : GDS209.RAW

# Profile Datafile
          comment             = SynAluniteH30-200C
          date & time         = 08-03-27 07:16:41

# Measurement Condition
    X-ray tube
          target              = Cu
          voltage             = 40.0 (kV)
          current             = 30.0 (mA)
    Slits
          divergence slit     = 2.00000 (deg)
          scatter slit        = 2.00000 (deg)
          receiving slit      = 0.15000 (mm)
    Scanning
          drive axis          = Theta-2Theta
          scan range          =    4.000 -   65.000
          scan mode           = Continuous Scan
          scan speed          =   2.0000 (deg/min)
          sampling pitch      =   0.0200 (deg)
          preset time         =   0.60 (sec)

# Data      [ Total No. = 3051 ]
  <2Theta>   <   I   >
     4.0000       198
     4.2200       154
     4.4400       170
     4.6600       152
     4.8800       178
     5.1000       168
     5.3200       144
     5.5400       170
     5.7600       136
     5.9800       152
     6.2000       130
     6.4200       130
     6.6400       118
     6.8600       144
     7.0800       114
     7.3000       114
     7.5200       116
     7.7400       132
     7.9600       122
     8.1800       120
     8.4000       108
     8.6200        98
     8.8400       110
     9.0600       112
     9.2800       102
     9.5000       108
     9.7200        98
     9.9400       132
    10.1600       110
    10.3800       106
    10.6000        80
    10.8200        92
    11.0400        98
    11.2600        84
    11.4800        86
    11.7000        68
    11.9200        82
    12.1400        94
    12.3600        78
    12.5800        70
    12.8000        82
    13.0200        74
    13.2400        68
    13.4600        72
    13.6800        70
    13.9000        60
    14.1200        88
    14.3400        66
    14.5600        64
    14.7800        78
    15.0000        66
    15.2200        96
    15.4400       188
    15.6600        74
    15.8800        62
    16.1000        54
    16.3200        64
    16.5400        66
    16.7600        60
    16.9800        60
    17.2000        68
    17.4200       102
    17.6400       274
    17.8600      1016
    18.0800       146
    18.3000        64
    18.5200        50
    18.7400        68
    18.9600        48
    19.1800        50
    19.4000        32
    19.6200        52
    19.8400        32
    20.0600        48
    20.2800        44
    20.5000        50
    20.7200        48
    20.9400        46
    21.1600        40
    21.3800        30
    21.6000        42
    21.8200        50
    22.0400        38
    22.2600        50
    22.4800        40
    22.7000        52
    22.9200        36
    23.1400        34
    23.3600        46
    23.5800        36
    23.8000        46
    24.0200        54
    24.2400        30
    24.4600        44
    24.6800        42
    24.9000        44
    25.1200        86
    25.3400       346
    25.5600        64
    25.7800        38
    26.0000        30
    26.2200        26
    26.4400        28
    26.6600        28
    26.8800        36
    27.1000        50
    27.3200        22
    27.5400        28
    27.7600        22
    27.9800        42
    28.2000        34
    28.4200        42
    28.6400        46
    28.8600        36
    29.0800        40
    29.3000        60
    29.5200       156
    29.7400      1308
    29.9600      1004
    30.1800       104
    30.4000        36
    30.6200        30
    30.8400        38
    31.0600        50
    31.2800       110
    31.5000        48
    31.7200        38
    31.9400        28
    32.1600        32
    32.3800        22
    32.6000        24
    32.8200        30
    33.0400        28
    33.2600        24
    33.4800        28
    33.7000        26
    33.9200        28
    34.1400        22
    34.3600        28
    34.5800        30
    34.8000        30
    35.0200        32
    35.2400        32
    35.4600        28
    35.6800        34
    35.9000        26
    36.1200        34
    36.3400        32
    36.5600        28
    36.7800        24
    37.0000        28
    37.2200        26
    37.4400        18
    37.6600        26
    37.8800        32
    38.1000        20
    38.3200        26
    38.5400        36
    38.7600        14
    38.9800        32
    39.2000        30
    39.4200       114
    39.6400       428
    39.8600       118
    40.0800        52
    40.3000        30
    40.5200        58
    40.7400        56
    40.9600        28
    41.1800        26
    41.4000        16
    41.6200        22
    41.8400        14
    42.0600        24
    42.2800        26
    42.5000        22
    42.7200        34
    42.9400        22
    43.1600        22
    43.3800        24
    43.6000        28
    43.8200        26
    44.0400        20
    44.2600        24
    44.4800        30
    44.7000        30
    44.9200        24
    45.1400        26
    45.3600        34
    45.5800        18
    45.8000        26
    46.0200        24
    46.2400        32
    46.4600        20
    46.6800        26
    46.9000        26
    47.1200        28
    47.3400        52
    47.5600       474
    47.7800       292
    48.0000        52
    48.2200        36
    48.4400        26
    48.6600        28
    48.8800        24
    49.1000        30
    49.3200        24
    49.5400        16
    49.7600        26
    49.9800        22
    50.2000        36
    50.4200        30
    50.6400        32
    50.8600        26
    51.0800        22
    51.3000        26
    51.5200        14
    51.7400        38
    51.9600        84
    52.1800       296
    52.4000        56
    52.6200        30
    52.8400        28
    53.0600        14
    53.2800        22
    53.5000        26
    53.7200        22
    53.9400        24
    54.1600        24
    54.3800        24
    54.6000        42
    54.8200        32
    55.0400        20
    55.2600        24
    55.4800        74
    55.7000        76
    55.9200        20
    56.1400        18
    56.3600        24
    56.5800        38
    56.8000        20
    57.0200        26
    57.2400        22
    57.4600        22
    57.6800        32
    57.9000        20
    58.1200        20
    58.3400        16
    58.5600        28
    58.7800        68
    59.0000        82
    59.2200        34
    59.4400        26
    59.6600        18
    59.8800        30
    60.1000        18
    60.3200        34
    60.5400        18
    60.7600        22
    60.9800        20
    61.2000        52
    61.4200        54
    61.6400        36
    61.8600        46
    62.0800       274
    62.3000       158
    62.5200        48
    62.7400        36
    62.9600        34
    63.1800        30
    63.4000        34
    63.6200        22
    63.8400        28
    64.0600        32
    64.2800        28
    64.5000        22
    64.7200        18
    64.9400        24
    65.0000        34