Folder: spectroscopy-tetracorder/sl1/usgs/library06/DESCRIPT/new_xrd_results_to_be_added/Rhonda_Driscoll_xrd_runs (part 5)

File: GDS41.txt
/////////////////////////////////////////////////////////////////////////////////
/// Profile Data Ascii Dump (XRD)                                             ///
/////////////////////////////////////////////////////////////////////////////////

  Group     : Swayze
  Data      : GDS41
  File Name : GDS41.RAW

# Profile Datafile
          comment             = Nontronite
          date & time         = 08-03-24 07:17:59

# Measurement Condition
    X-ray tube
          target              = Cu
          voltage             = 40.0 (kV)
          current             = 30.0 (mA)
    Slits
          divergence slit     = 2.00000 (deg)
          scatter slit        = 2.00000 (deg)
          receiving slit      = 0.15000 (mm)
    Scanning
          drive axis          = Theta-2Theta
          scan range          =    4.000 -   65.000
          scan mode           = Continuous Scan
          scan speed          =   2.0000 (deg/min)
          sampling pitch      =   0.0200 (deg)
          preset time         =   0.60 (sec)

# Data      [ Total No. = 3051 ]
  <2Theta>   <   I   >
     4.0000       202
     4.2200       162
     4.4400       184
     4.6600       172
     4.8800       196
     5.1000       170
     5.3200       174
     5.5400       180
     5.7600       182
     5.9800       244
     6.2000       244
     6.4200       164
     6.6400       162
     6.8600       132
     7.0800       124
     7.3000       140
     7.5200       126
     7.7400       134
     7.9600       144
     8.1800       236
     8.4000       136
     8.6200       108
     8.8400       124
     9.0600       120
     9.2800       124
     9.5000       138
     9.7200       112
     9.9400       104
    10.1600       114
    10.3800       114
    10.6000       126
    10.8200        94
    11.0400       112
    11.2600       214
    11.4800       530
    11.7000       174
    11.9200       136
    12.1400       138
    12.3600       294
    12.5800       366
    12.8000       182
    13.0200       862
    13.2400       106
    13.4600        78
    13.6800        76
    13.9000        62
    14.1200        74
    14.3400        78
    14.5600        80
    14.7800        72
    15.0000        80
    15.2200       196
    15.4400       258
    15.6600        82
    15.8800        78
    16.1000        94
    16.3200       150
    16.5400       440
    16.7600       136
    16.9800        68
    17.2000        84
    17.4200        84
    17.6400        84
    17.8600       172
    18.0800       168
    18.3000       136
    18.5200       318
    18.7400      1638
    18.9600       158
    19.1800       244
    19.4000       588
    19.6200       266
    19.8400       118
    20.0600       206
    20.2800       694
    20.5000       178
    20.7200      1140
    20.9400       114
    21.1600        88
    21.3800        86
    21.6000       100
    21.8200       308
    22.0400       242
    22.2600       150
    22.4800       150
    22.7000        76
    22.9200        96
    23.1400       108
    23.3600       290
    23.5800       108
    23.8000       108
    24.0200       216
    24.2400       134
    24.4600       484
    24.6800      1714
    24.9000       572
    25.1200      6828
    25.3400       176
    25.5600       166
    25.7800       180
    26.0000       110
    26.2200       148
    26.4400       300
    26.6600        84
    26.8800        76
    27.1000       196
    27.3200       192
    27.5400       146
    27.7600        84
    27.9800        86
    28.2000        72
    28.4200       156
    28.6400       110
    28.8600        84
    29.0800        68
    29.3000        70
    29.5200        78
    29.7400        74
    29.9600        72
    30.1800       106
    30.4000       194
    30.6200       142
    30.8400       480
    31.0600       164
    31.2800       212
    31.5000       134
    31.7200       320
    31.9400       294
    32.1600       126
    32.3800       136
    32.6000       178
    32.8200       108
    33.0400        90
    33.2600       210
    33.4800       216
    33.7000       156
    33.9200        86
    34.1400       120
    34.3600       192
    34.5800       202
    34.8000       156
    35.0200       222
    35.2400       182
    35.4600       174
    35.6800       164
    35.9000       178
    36.1200       270
    36.3400       112
    36.5600       258
    36.7800       192
    37.0000       160
    37.2200       242
    37.4400       142
    37.6600       126
    37.8800       134
    38.1000       274
    38.3200       526
    38.5400       156
    38.7600       132
    38.9800       226
    39.2000       104
    39.4200        82
    39.6400       298
    39.8600       314
    40.0800       194
    40.3000       166
    40.5200       118
    40.7400        72
    40.9600        92
    41.1800       150
    41.4000       200
    41.6200        70
    41.8400        68
    42.0600        76
    42.2800        76
    42.5000       102
    42.7200        98
    42.9400       102
    43.1600       110
    43.3800       186
    43.6000       164
    43.8200       174
    44.0400       100
    44.2600        86
    44.4800       122
    44.7000        92
    44.9200       138
    45.1400       124
    45.3600       112
    45.5800        82
    45.8000        94
    46.0200        58
    46.2400       122
    46.4600       102
    46.6800       144
    46.9000       168
    47.1200       196
    47.3400        98
    47.5600       188
    47.7800       128
    48.0000       150
    48.2200       110
    48.4400       114
    48.6600        94
    48.8800        88
    49.1000       132
    49.3200        90
    49.5400        74
    49.7600        92
    49.9800       100
    50.2000       100
    50.4200       116
    50.6400       146
    50.8600        96
    51.0800        46
    51.3000        88
    51.5200        94
    51.7400       130
    51.9600       110
    52.1800        92
    52.4000        68
    52.6200       108
    52.8400        72
    53.0600       106
    53.2800        82
    53.5000        96
    53.7200       110
    53.9400       176
    54.1600        96
    54.3800        80
    54.6000        98
    54.8200        84
    55.0400        92
    55.2600       102
    55.4800        92
    55.7000        72
    55.9200        74
    56.1400        64
    56.3600        88
    56.5800        62
    56.8000        58
    57.0200        58
    57.2400        84
    57.4600       106
    57.6800        74
    57.9000        76
    58.1200        74
    58.3400        70
    58.5600        76
    58.7800        92
    59.0000       146
    59.2200       102
    59.4400        72
    59.6600       124
    59.8800       140
    60.1000        98
    60.3200       104
    60.5400       114
    60.7600        84
    60.9800        84
    61.2000        90
    61.4200        86
    61.6400        82
    61.8600        74
    62.0800        74
    62.3000        66
    62.5200        58
    62.7400        58
    62.9600        64
    63.1800        58
    63.4000       122
    63.6200       112
    63.8400        66
    64.0600        62
    64.2800       108
    64.5000        74
    64.7200        72
    64.9400        72
    65.0000        76

File: GDS41re-Nontonite.txt
/////////////////////////////////////////////////////////////////////////////////
/// Profile Data Ascii Dump (XRD)                                             ///
/////////////////////////////////////////////////////////////////////////////////

  Group     : Swayze
  Data      : GDS41-re
  File Name : GDS41-re.RAW

# Profile Datafile
          comment             = Nontronite
          date & time         = 08-04-29 07:12:55

# Measurement Condition
    X-ray tube
          target              = Cu
          voltage             = 40.0 (kV)
          current             = 30.0 (mA)
    Slits
          divergence slit     = 2.00000 (deg)
          scatter slit        = 2.00000 (deg)
          receiving slit      = 0.15000 (mm)
    Scanning
          drive axis          = Theta-2Theta
          scan range          =    4.000 -   65.000
          scan mode           = Continuous Scan
          scan speed          =   2.0000 (deg/min)
          sampling pitch      =   0.0200 (deg)
          preset time         =   0.60 (sec)

# Data      [ Total No. = 3051 ]
  <2Theta>   <   I   >
     4.0000       208
     4.2200       186
     4.4400       172
     4.6600       162
     4.8800       152
     5.1000       166
     5.3200       184
     5.5400       172
     5.7600       162
     5.9800       218
     6.2000       278
     6.4200       224
     6.6400       142
     6.8600       150
     7.0800       138
     7.3000       112
     7.5200       130
     7.7400       114
     7.9600       110
     8.1800       128
     8.4000       126
     8.6200       132
     8.8400       106
     9.0600       100
     9.2800       118
     9.5000       114
     9.7200       118
     9.9400       126
    10.1600        92
    10.3800       124
    10.6000       118
    10.8200       100
    11.0400       106
    11.2600        96
    11.4800        92
    11.7000       102
    11.9200       112
    12.1400       120
    12.3600       246
    12.5800       190
    12.8000       106
    13.0200        78
    13.2400        76
    13.4600        90
    13.6800        66
    13.9000        86
    14.1200        76
    14.3400        76
    14.5600        54
    14.7800        60
    15.0000        64
    15.2200        64
    15.4400        90
    15.6600        52
    15.8800        76
    16.1000        64
    16.3200        56
    16.5400        56
    16.7600        58
    16.9800        54
    17.2000        74
    17.4200        58
    17.6400        78
    17.8600        64
    18.0800        56
    18.3000        64
    18.5200        82
    18.7400       120
    18.9600        92
    19.1800        80
    19.4000        90
    19.6200        72
    19.8400        58
    20.0600        88
    20.2800        78
    20.5000        54
    20.7200        72
    20.9400        72
    21.1600        84
    21.3800        60
    21.6000        64
    21.8200        50
    22.0400        60
    22.2600        44
    22.4800        62
    22.7000        52
    22.9200        58
    23.1400        42
    23.3600        60
    23.5800        64
    23.8000        60
    24.0200        66
    24.2400        78
    24.4600        72
    24.6800       112
    24.9000       156
    25.1200       246
    25.3400        90
    25.5600        74
    25.7800        70
    26.0000        76
    26.2200        54
    26.4400        62
    26.6600        60
    26.8800        54
    27.1000        54
    27.3200        42
    27.5400        34
    27.7600        48
    27.9800        42
    28.2000        48
    28.4200        44
    28.6400        42
    28.8600        36
    29.0800        26
    29.3000        42
    29.5200        36
    29.7400        38
    29.9600        42
    30.1800        36
    30.4000        38
    30.6200        48
    30.8400        50
    31.0600        50
    31.2800        58
    31.5000        86
    31.7200        62
    31.9400        38
    32.1600        46
    32.3800        46
    32.6000        38
    32.8200        38
    33.0400        44
    33.2600        44
    33.4800        40
    33.7000        46
    33.9200        42
    34.1400        62
    34.3600        72
    34.5800       156
    34.8000        82
    35.0200        94
    35.2400        92
    35.4600        38
    35.6800        52
    35.9000        34
    36.1200        52
    36.3400        44
    36.5600        70
    36.7800       108
    37.0000        56
    37.2200        62
    37.4400        62
    37.6600        90
    37.8800        52
    38.1000        40
    38.3200        28
    38.5400        34
    38.7600        38
    38.9800        40
    39.2000        42
    39.4200        44
    39.6400        54
    39.8600        84
    40.0800        58
    40.3000        40
    40.5200        42
    40.7400        50
    40.9600        46
    41.1800        38
    41.4000        42
    41.6200        40
    41.8400        22
    42.0600        46
    42.2800        36
    42.5000        36
    42.7200        38
    42.9400        24
    43.1600        28
    43.3800        32
    43.6000        44
    43.8200        38
    44.0400        34
    44.2600        42
    44.4800        40
    44.7000        50
    44.9200        78
    45.1400       120
    45.3600        84
    45.5800        64
    45.8000        36
    46.0200        26
    46.2400        28
    46.4600        32
    46.6800        22
    46.9000        36
    47.1200        28
    47.3400        34
    47.5600        50
    47.7800        42
    48.0000        44
    48.2200        54
    48.4400        54
    48.6600        40
    48.8800        42
    49.1000        36
    49.3200        36
    49.5400        34
    49.7600        40
    49.9800        38
    50.2000        34
    50.4200        36
    50.6400        34
    50.8600        22
    51.0800        32
    51.3000        30
    51.5200        34
    51.7400        30
    51.9600        26
    52.1800        32
    52.4000        40
    52.6200        34
    52.8400        46
    53.0600        20
    53.2800        42
    53.5000        46
    53.7200        38
    53.9400        34
    54.1600        34
    54.3800        40
    54.6000        38
    54.8200        36
    55.0400        42
    55.2600        48
    55.4800        40
    55.7000        42
    55.9200        34
    56.1400        34
    56.3600        30
    56.5800        40
    56.8000        38
    57.0200        28
    57.2400        30
    57.4600        26
    57.6800        36
    57.9000        32
    58.1200        24
    58.3400        40
    58.5600        42
    58.7800        68
    59.0000        88
    59.2200        64
    59.4400        46
    59.6600        56
    59.8800       108
    60.1000        72
    60.3200        58
    60.5400        46
    60.7600        40
    60.9800        48
    61.2000        58
    61.4200        54
    61.6400        52
    61.8600        42
    62.0800        32
    62.3000        38
    62.5200        22
    62.7400        20
    62.9600        34
    63.1800        40
    63.4000        22
    63.6200        38
    63.8400        20
    64.0600        26
    64.2800        22
    64.5000        24
    64.7200        34
    64.9400        22
    65.0000        30

File: GDS46---Scapolite.txt
/////////////////////////////////////////////////////////////////////////////////
/// Profile Data Ascii Dump (XRD)                                             ///
/////////////////////////////////////////////////////////////////////////////////

  Group     : Swayze
  Data      : GDS46
  File Name : GDS46.RAW

# Profile Datafile
          comment             = Scapolite
          date & time         = 08-03-25 06:22:10

# Measurement Condition
    X-ray tube
          target              = Cu
          voltage             = 40.0 (kV)
          current             = 30.0 (mA)
    Slits
          divergence slit     = 2.00000 (deg)
          scatter slit        = 2.00000 (deg)
          receiving slit      = 0.15000 (mm)
    Scanning
          drive axis          = Theta-2Theta
          scan range          =    4.000 -   65.000
          scan mode           = Continuous Scan
          scan speed          =   2.0000 (deg/min)
          sampling pitch      =   0.0200 (deg)
          preset time         =   0.60 (sec)

# Data      [ Total No. = 3051 ]
  <2Theta>   <   I   >
     4.0000       176
     4.2200       182
     4.4400       188
     4.6600       180
     4.8800       162
     5.1000       164
     5.3200       172
     5.5400       140
     5.7600       144
     5.9800       156
     6.2000       174
     6.4200       148
     6.6400       124
     6.8600       126
     7.0800       138
     7.3000       110
     7.5200       102
     7.7400        92
     7.9600       100
     8.1800       126
     8.4000       104
     8.6200       136
     8.8400       112
     9.0600       102
     9.2800       124
     9.5000       106
     9.7200        90
     9.9400       104
    10.1600       124
    10.3800       176
    10.6000       112
    10.8200        90
    11.0400        84
    11.2600        80
    11.4800        74
    11.7000        78
    11.9200        76
    12.1400        90
    12.3600        84
    12.5800        80
    12.8000        52
    13.0200        54
    13.2400        70
    13.4600        76
    13.6800        96
    13.9000        80
    14.1200        68
    14.3400        78
    14.5600       114
    14.7800       120
    15.0000        58
    15.2200        66
    15.4400        54
    15.6600        68
    15.8800        70
    16.1000        54
    16.3200        46
    16.5400        52
    16.7600        48
    16.9800        54
    17.2000        64
    17.4200        50
    17.6400        48
    17.8600        48
    18.0800        42
    18.3000        52
    18.5200        42
    18.7400        62
    18.9600        52
    19.1800        50
    19.4000        36
    19.6200        54
    19.8400        42
    20.0600        58
    20.2800        72
    20.5000        44
    20.7200        74
    20.9400        74
    21.1600        46
    21.3800        48
    21.6000        52
    21.8200        42
    22.0400        72
    22.2600        56
    22.4800        40
    22.7000        44
    22.9200        72
    23.1400       144
    23.3600      1084
    23.5800       128
    23.8000        54
    24.0200        62
    24.2400        74
    24.4600        40
    24.6800        52
    24.9000       142
    25.1200       418
    25.3400        96
    25.5600       638
    25.7800       742
    26.0000       126
    26.2200        64
    26.4400        62
    26.6600        56
    26.8800        40
    27.1000        44
    27.3200        34
    27.5400        66
    27.7600       190
    27.9800       876
    28.2000        78
    28.4200        68
    28.6400        50
    28.8600        76
    29.0800       534
    29.3000       536
    29.5200       276
    29.7400       272
    29.9600        48
    30.1800        46
    30.4000        46
    30.6200        52
    30.8400        34
    31.0600        38
    31.2800        56
    31.5000       206
    31.7200        56
    31.9400        40
    32.1600        30
    32.3800        38
    32.6000        52
    32.8200       278
    33.0400       104
    33.2600       486
    33.4800       192
    33.7000        38
    33.9200        50
    34.1400        32
    34.3600        28
    34.5800        28
    34.8000        44
    35.0200        64
    35.2400        36
    35.4600        46
    35.6800        30
    35.9000        38
    36.1200        30
    36.3400        26
    36.5600        26
    36.7800        36
    37.0000        50
    37.2200        30
    37.4400        48
    37.6600        30
    37.8800        38
    38.1000        54
    38.3200        30
    38.5400        46
    38.7600        48
    38.9800        50
    39.2000       288
    39.4200        60
    39.6400        46
    39.8600        30
    40.0800        28
    40.3000        26
    40.5200        26
    40.7400        32
    40.9600        72
    41.1800        42
    41.4000        38
    41.6200        30
    41.8400        58
    42.0600       314
    42.2800       154
    42.5000        68
    42.7200        54
    42.9400        38
    43.1600        30
    43.3800        32
    43.6000        40
    43.8200        52
    44.0400        22
    44.2600        32
    44.4800        40
    44.7000        40
    44.9200       140
    45.1400       118
    45.3600        46
    45.5800        40
    45.8000        56
    46.0200        26
    46.2400        26
    46.4600        38
    46.6800        34
    46.9000        30
    47.1200        58
    47.3400       178
    47.5600       800
    47.7800       154
    48.0000        88
    48.2200        44
    48.4400        38
    48.6600        38
    48.8800        28
    49.1000        32
    49.3200        24
    49.5400        38
    49.7600        44
    49.9800        52
    50.2000       104
    50.4200        66
    50.6400        28
    50.8600        34
    51.0800        34
    51.3000        28
    51.5200        42
    51.7400        36
    51.9600        34
    52.1800        46
    52.4000       108
    52.6200        44
    52.8400        32
    53.0600        30
    53.2800        46
    53.5000        26
    53.7200       184
    53.9400        80
    54.1600        34
    54.3800        50
    54.6000        34
    54.8200        62
    55.0400        30
    55.2600        32
    55.4800        22
    55.7000        30
    55.9200        22
    56.1400        28
    56.3600        32
    56.5800        42
    56.8000        54
    57.0200        56
    57.2400        38
    57.4600        54
    57.6800        32
    57.9000        34
    58.1200        36
    58.3400        40
    58.5600        42
    58.7800        50
    59.0000        44
    59.2200       132
    59.4400        90
    59.6600        50
    59.8800        20
    60.1000        30
    60.3200        38
    60.5400        38
    60.7600        26
    60.9800        30
    61.2000        86
    61.4200        92
    61.6400        44
    61.8600        28
    62.0800        26
    62.3000        28
    62.5200        32
    62.7400        82
    62.9600        58
    63.1800        38
    63.4000        52
    63.6200       116
    63.8400        84
    64.0600        28
    64.2800        32
    64.5000        36
    64.7200        32
    64.9400        28
    65.0000        34