Folder: spectroscopy-tetracorder/sl1/usgs/library06/DESCRIPT/new_xrd_results_to_be_added/Rhonda_Driscoll_xrd_runs (part 23)

File: WS-737---Chabazite.txt
/////////////////////////////////////////////////////////////////////////////////
/// Profile Data Ascii Dump (XRD)                                             ///
/////////////////////////////////////////////////////////////////////////////////

  Group     : Swayze
  Data      : WS 737
  File Name : WS 737.RAW

# Profile Datafile
          comment             = Chabazite
          date & time         = 08-03-12 06:29:26

# Measurement Condition
    X-ray tube
          target              = Cu
          voltage             = 40.0 (kV)
          current             = 30.0 (mA)
    Slits
          divergence slit     = 2.00000 (deg)
          scatter slit        = 2.00000 (deg)
          receiving slit      = 0.15000 (mm)
    Scanning
          drive axis          = Theta-2Theta
          scan range          =    4.000 -   65.000
          scan mode           = Continuous Scan
          scan speed          =   2.0000 (deg/min)
          sampling pitch      =   0.0200 (deg)
          preset time         =   0.60 (sec)

# Data      [ Total No. = 3051 ]
  <2Theta>   <   I   >
     4.0000       186
     4.2200       206
     4.4400       178
     4.6600       164
     4.8800       164
     5.1000       148
     5.3200       184
     5.5400       144
     5.7600       168
     5.9800       186
     6.2000       156
     6.4200       144
     6.6400       140
     6.8600       134
     7.0800       126
     7.3000       122
     7.5200       114
     7.7400       138
     7.9600       116
     8.1800       106
     8.4000       114
     8.6200       144
     8.8400       124
     9.0600       186
     9.2800       380
     9.5000       662
     9.7200       112
     9.9400       104
    10.1600       118
    10.3800        98
    10.6000        98
    10.8200        86
    11.0400       106
    11.2600       126
    11.4800        72
    11.7000        86
    11.9200        78
    12.1400        92
    12.3600        88
    12.5800       120
    12.8000       258
    13.0200       100
    13.2400        76
    13.4600        84
    13.6800       100
    13.9000       144
    14.1200        66
    14.3400        88
    14.5600        82
    14.7800        70
    15.0000        64
    15.2200        78
    15.4400        80
    15.6600       130
    15.8800       292
    16.1000        66
    16.3200        80
    16.5400        76
    16.7600        80
    16.9800        90
    17.2000        84
    17.4200       106
    17.6400       280
    17.8600       100
    18.0800        72
    18.3000        78
    18.5200        96
    18.7400        74
    18.9600       248
    19.1800        82
    19.4000        90
    19.6200        90
    19.8400        78
    20.0600        96
    20.2800       244
    20.5000      1700
    20.7200       142
    20.9400        98
    21.1600        70
    21.3800        66
    21.6000        66
    21.8200        76
    22.0400        90
    22.2600       122
    22.4800        80
    22.7000        86
    22.9200       346
    23.1400        84
    23.3600        64
    23.5800        84
    23.8000        58
    24.0200        84
    24.2400        70
    24.4600        78
    24.6800       170
    24.9000       514
    25.1200        76
    25.3400        66
    25.5600        76
    25.7800       314
    26.0000        90
    26.2200        68
    26.4400       146
    26.6600       218
    26.8800        70
    27.1000        60
    27.3200        82
    27.5400       194
    27.7600        94
    27.9800       138
    28.2000       132
    28.4200        88
    28.6400        64
    28.8600        82
    29.0800        74
    29.3000        92
    29.5200        80
    29.7400        78
    29.9600        78
    30.1800       122
    30.4000       722
    30.6200       474
    30.8400       354
    31.0600       474
    31.2800        90
    31.5000       144
    31.7200        80
    31.9400        62
    32.1600       112
    32.3800        70
    32.6000        76
    32.8200        82
    33.0400       110
    33.2600       144
    33.4800       304
    33.7000        64
    33.9200        86
    34.1400        72
    34.3600       354
    34.5800        72
    34.8000       114
    35.0200        68
    35.2400        68
    35.4600        78
    35.6800       106
    35.9000       992
    36.1200       130
    36.3400        78
    36.5600        76
    36.7800        66
    37.0000        76
    37.2200        58
    37.4400        74
    37.6600        56
    37.8800        60
    38.1000        98
    38.3200        78
    38.5400        90
    38.7600        66
    38.9800        94
    39.2000       136
    39.4200        82
    39.6400        80
    39.8600        62
    40.0800        60
    40.3000        72
    40.5200        76
    40.7400        60
    40.9600        58
    41.1800        54
    41.4000        72
    41.6200        66
    41.8400        76
    42.0600        62
    42.2800        66
    42.5000        70
    42.7200       114
    42.9400        88
    43.1600       118
    43.3800       266
    43.6000        62
    43.8200        68
    44.0400        56
    44.2600        46
    44.4800        36
    44.7000        74
    44.9200        58
    45.1400        48
    45.3600        52
    45.5800        60
    45.8000        62
    46.0200        44
    46.2400        40
    46.4600        52
    46.6800        54
    46.9000        74
    47.1200        50
    47.3400        64
    47.5600       108
    47.7800        54
    48.0000        52
    48.2200        70
    48.4400        54
    48.6600       222
    48.8800       184
    49.1000        78
    49.3200        74
    49.5400        60
    49.7600        58
    49.9800        54
    50.2000        64
    50.4200       120
    50.6400       252
    50.8600        78
    51.0800        56
    51.3000        64
    51.5200        68
    51.7400        96
    51.9600        42
    52.1800        42
    52.4000        52
    52.6200        54
    52.8400        78
    53.0600       174
    53.2800       144
    53.5000        44
    53.7200        52
    53.9400        78
    54.1600       154
    54.3800        96
    54.6000        42
    54.8200        52
    55.0400       104
    55.2600        98
    55.4800        44
    55.7000        66
    55.9200        88
    56.1400        88
    56.3600        62
    56.5800        42
    56.8000        48
    57.0200        46
    57.2400        58
    57.4600        38
    57.6800        44
    57.9000        38
    58.1200        64
    58.3400        62
    58.5600        44
    58.7800        36
    59.0000        50
    59.2200        66
    59.4400       110
    59.6600        66
    59.8800        74
    60.1000        66
    60.3200        60
    60.5400        42
    60.7600        76
    60.9800       116
    61.2000        84
    61.4200        74
    61.6400        26
    61.8600        52
    62.0800        56
    62.3000        58
    62.5200       104
    62.7400        66
    62.9600        70
    63.1800        44
    63.4000        42
    63.6200        58
    63.8400        54
    64.0600        52
    64.2800        92
    64.5000        64
    64.7200        44
    64.9400        38
    65.0000        30