Folder: spectroscopy-tetracorder/sl1/usgs/library06/DESCRIPT/new_xrd_results_to_be_added/Rhonda_Driscoll_xrd_runs (part 12)

File: GDS764---Chlorite.txt
/////////////////////////////////////////////////////////////////////////////////
/// Profile Data Ascii Dump (XRD)                                             ///
/////////////////////////////////////////////////////////////////////////////////

  Group     : Swayze
  Data      : GDS764
  File Name : GDS764.RAW

# Profile Datafile
          comment             = Chlorite
          date & time         = 08-03-12 05:58:27

# Measurement Condition
    X-ray tube
          target              = Cu
          voltage             = 40.0 (kV)
          current             = 30.0 (mA)
    Slits
          divergence slit     = 2.00000 (deg)
          scatter slit        = 2.00000 (deg)
          receiving slit      = 0.15000 (mm)
    Scanning
          drive axis          = Theta-2Theta
          scan range          =    4.000 -   65.000
          scan mode           = Continuous Scan
          scan speed          =   2.0000 (deg/min)
          sampling pitch      =   0.0200 (deg)
          preset time         =   0.60 (sec)

# Data      [ Total No. = 3051 ]
  <2Theta>   <   I   >
     4.0000       212
     4.2200       222
     4.4400       198
     4.6600       196
     4.8800       188
     5.1000       238
     5.3200       184
     5.5400       232
     5.7600       284
     5.9800       518
     6.2000       800
     6.4200       178
     6.6400       162
     6.8600       110
     7.0800       144
     7.3000       110
     7.5200       126
     7.7400       136
     7.9600       108
     8.1800       112
     8.4000       112
     8.6200       128
     8.8400       120
     9.0600       114
     9.2800       120
     9.5000       108
     9.7200       118
     9.9400       132
    10.1600       106
    10.3800       126
    10.6000       110
    10.8200       104
    11.0400       100
    11.2600       110
    11.4800       124
    11.7000       148
    11.9200       204
    12.1400       518
    12.3600      1760
    12.5800       222
    12.8000        92
    13.0200        78
    13.2400        84
    13.4600        64
    13.6800        86
    13.9000        70
    14.1200        72
    14.3400        82
    14.5600        60
    14.7800        60
    15.0000        56
    15.2200        42
    15.4400        76
    15.6600        70
    15.8800        46
    16.1000        48
    16.3200        68
    16.5400        44
    16.7600        66
    16.9800        50
    17.2000        58
    17.4200        58
    17.6400        74
    17.8600        76
    18.0800       108
    18.3000       284
    18.5200       938
    18.7400       936
    18.9600       180
    19.1800       270
    19.4000       208
    19.6200       154
    19.8400       138
    20.0600       112
    20.2800       108
    20.5000       136
    20.7200       128
    20.9400       112
    21.1600       110
    21.3800       100
    21.6000       104
    21.8200       106
    22.0400        94
    22.2600        98
    22.4800        90
    22.7000        86
    22.9200        82
    23.1400       104
    23.3600        96
    23.5800       110
    23.8000        88
    24.0200       108
    24.2400       100
    24.4600       116
    24.6800       338
    24.9000      1670
    25.1200       686
    25.3400       166
    25.5600       120
    25.7800        94
    26.0000       104
    26.2200        78
    26.4400        74
    26.6600        64
    26.8800        74
    27.1000        72
    27.3200        72
    27.5400        52
    27.7600        74
    27.9800        60
    28.2000        66
    28.4200        62
    28.6400        56
    28.8600        58
    29.0800        66
    29.3000        58
    29.5200        58
    29.7400        48
    29.9600        62
    30.1800        60
    30.4000        66
    30.6200        70
    30.8400        82
    31.0600       122
    31.2800       446
    31.5000       304
    31.7200        76
    31.9400        76
    32.1600        58
    32.3800        68
    32.6000        64
    32.8200        50
    33.0400        62
    33.2600        60
    33.4800        72
    33.7000       122
    33.9200        72
    34.1400        80
    34.3600       110
    34.5800       262
    34.8000       228
    35.0200       208
    35.2400       624
    35.4600       230
    35.6800       118
    35.9000       102
    36.1200        76
    36.3400       112
    36.5600       232
    36.7800       496
    37.0000       210
    37.2200       102
    37.4400       126
    37.6600       234
    37.8800       210
    38.1000        88
    38.3200        52
    38.5400        58
    38.7600        42
    38.9800        60
    39.2000        68
    39.4200        64
    39.6400       130
    39.8600       226
    40.0800       108
    40.3000        62
    40.5200        56
    40.7400        54
    40.9600        60
    41.1800        62
    41.4000        44
    41.6200        56
    41.8400        52
    42.0600        54
    42.2800        50
    42.5000        42
    42.7200        62
    42.9400        48
    43.1600        72
    43.3800        74
    43.6000        86
    43.8200       100
    44.0400        92
    44.2600        86
    44.4800       180
    44.7000       166
    44.9200       266
    45.1400       516
    45.3600       326
    45.5800       122
    45.8000        76
    46.0200        62
    46.2400        78
    46.4600        56
    46.6800        64
    46.9000        52
    47.1200        62
    47.3400        54
    47.5600        38
    47.7800        64
    48.0000       100
    48.2200       170
    48.4400       138
    48.6600        68
    48.8800        48
    49.1000        56
    49.3200        54
    49.5400        90
    49.7600       154
    49.9800       174
    50.2000       128
    50.4200        68
    50.6400        44
    50.8600        44
    51.0800        52
    51.3000        66
    51.5200        38
    51.7400        34
    51.9600        38
    52.1800        48
    52.4000        68
    52.6200        70
    52.8400        74
    53.0600        82
    53.2800        74
    53.5000        76
    53.7200        68
    53.9400        58
    54.1600        62
    54.3800        50
    54.6000        58
    54.8200        74
    55.0400       114
    55.2600        80
    55.4800        64
    55.7000        66
    55.9200        44
    56.1400        58
    56.3600        52
    56.5800        54
    56.8000        54
    57.0200        48
    57.2400        60
    57.4600        54
    57.6800        52
    57.9000        74
    58.1200        78
    58.3400       110
    58.5600       168
    58.7800       312
    59.0000       274
    59.2200       140
    59.4400       122
    59.6600        74
    59.8800       112
    60.1000       366
    60.3200       304
    60.5400       114
    60.7600        82
    60.9800        70
    61.2000        72
    61.4200        80
    61.6400       124
    61.8600       112
    62.0800        66
    62.3000        56
    62.5200        58
    62.7400        50
    62.9600        50
    63.1800        42
    63.4000        46
    63.6200        78
    63.8400        60
    64.0600        44
    64.2800        48
    64.5000        42
    64.7200        50
    64.9400        48
    65.0000        48

File: GDS817---Allophane.txt
/////////////////////////////////////////////////////////////////////////////////
/// Profile Data Ascii Dump (XRD)                                             ///
/////////////////////////////////////////////////////////////////////////////////

  Group     : Swayze
  Data      : GDS817
  File Name : GDS817.RAW

# Profile Datafile
          comment             = Allophane
          date & time         = 08-03-12 08:02:14

# Measurement Condition
    X-ray tube
          target              = Cu
          voltage             = 40.0 (kV)
          current             = 30.0 (mA)
    Slits
          divergence slit     = 2.00000 (deg)
          scatter slit        = 2.00000 (deg)
          receiving slit      = 0.15000 (mm)
    Scanning
          drive axis          = Theta-2Theta
          scan range          =    4.000 -   65.000
          scan mode           = Continuous Scan
          scan speed          =   2.0000 (deg/min)
          sampling pitch      =   0.0200 (deg)
          preset time         =   0.60 (sec)

# Data      [ Total No. = 3051 ]
  <2Theta>   <   I   >
     4.0000       178
     4.2200       200
     4.4400       178
     4.6600       158
     4.8800       164
     5.1000       186
     5.3200       166
     5.5400       160
     5.7600       146
     5.9800       154
     6.2000       170
     6.4200       154
     6.6400       132
     6.8600       132
     7.0800       136
     7.3000       130
     7.5200       114
     7.7400       112
     7.9600       104
     8.1800       130
     8.4000       106
     8.6200       130
     8.8400       130
     9.0600       118
     9.2800       124
     9.5000       128
     9.7200        98
     9.9400       118
    10.1600       126
    10.3800       118
    10.6000        88
    10.8200        98
    11.0400        90
    11.2600        96
    11.4800       104
    11.7000        98
    11.9200        88
    12.1400        68
    12.3600        90
    12.5800        72
    12.8000        88
    13.0200        88
    13.2400        62
    13.4600        76
    13.6800        92
    13.9000        66
    14.1200        54
    14.3400        74
    14.5600        66
    14.7800        84
    15.0000        48
    15.2200        76
    15.4400        52
    15.6600        52
    15.8800        58
    16.1000        56
    16.3200        68
    16.5400        62
    16.7600        60
    16.9800        62
    17.2000        74
    17.4200        48
    17.6400        58
    17.8600        66
    18.0800        56
    18.3000        68
    18.5200        72
    18.7400        66
    18.9600        54
    19.1800        72
    19.4000        52
    19.6200        52
    19.8400        54
    20.0600        60
    20.2800        62
    20.5000        60
    20.7200        84
    20.9400        92
    21.1600        70
    21.3800        58
    21.6000        60
    21.8200        48
    22.0400        56
    22.2600        52
    22.4800        54
    22.7000        50
    22.9200        50
    23.1400        52
    23.3600        74
    23.5800        52
    23.8000        46
    24.0200        46
    24.2400        54
    24.4600        38
    24.6800        60
    24.9000        70
    25.1200        58
    25.3400        56
    25.5600        58
    25.7800        78
    26.0000       276
    26.2200       230
    26.4400       120
    26.6600        54
    26.8800       100
    27.1000       284
    27.3200        56
    27.5400        56
    27.7600        92
    27.9800        52
    28.2000        44
    28.4200        56
    28.6400        50
    28.8600        50
    29.0800        58
    29.3000        46
    29.5200        50
    29.7400        38
    29.9600        46
    30.1800        50
    30.4000        64
    30.6200        64
    30.8400        48
    31.0600        58
    31.2800        40
    31.5000        48
    31.7200        44
    31.9400        32
    32.1600        44
    32.3800        50
    32.6000        88
    32.8200       112
    33.0400       272
    33.2600        60
    33.4800        46
    33.7000        56
    33.9200        56
    34.1400        50
    34.3600        62
    34.5800        66
    34.8000        48
    35.0200        50
    35.2400        56
    35.4600        54
    35.6800        66
    35.9000       152
    36.1200       340
    36.3400        98
    36.5600        74
    36.7800        80
    37.0000        96
    37.2200       128
    37.4400        64
    37.6600       112
    37.8800       120
    38.1000        84
    38.3200       368
    38.5400       128
    38.7600        56
    38.9800        32
    39.2000        40
    39.4200        48
    39.6400        36
    39.8600        34
    40.0800        38
    40.3000        38
    40.5200        40
    40.7400        56
    40.9600        66
    41.1800       100
    41.4000        42
    41.6200        40
    41.8400        40
    42.0600        46
    42.2800        44
    42.5000        52
    42.7200       240
    42.9400       224
    43.1600        52
    43.3800        46
    43.6000        34
    43.8200        34
    44.0400        36
    44.2600        28
    44.4800        50
    44.7000        46
    44.9200        42
    45.1400        56
    45.3600        82
    45.5800       130
    45.8000       498
    46.0200        76
    46.2400        38
    46.4600        26
    46.6800        50
    46.9000        42
    47.1200        38
    47.3400        54
    47.5600        52
    47.7800        52
    48.0000        70
    48.2200       242
    48.4400       128
    48.6600        56
    48.8800        46
    49.1000        44
    49.3200        50
    49.5400        38
    49.7600        46
    49.9800        66
    50.2000       104
    50.4200        36
    50.6400        38
    50.8600        36
    51.0800        36
    51.3000        36
    51.5200        36
    51.7400        60
    51.9600        42
    52.1800        62
    52.4000       112
    52.6200        62
    52.8400       112
    53.0600        54
    53.2800        50
    53.5000        36
    53.7200        62
    53.9400        50
    54.1600        36
    54.3800        36
    54.6000        38
    54.8200        30
    55.0400        32
    55.2600        42
    55.4800        42
    55.7000        36
    55.9200        40
    56.1400        64
    56.3600        56
    56.5800        50
    56.8000        56
    57.0200        40
    57.2400        28
    57.4600        42
    57.6800        54
    57.9000        32
    58.1200        34
    58.3400        34
    58.5600        30
    58.7800        42
    59.0000        62
    59.2200        68
    59.4400        68
    59.6600        36
    59.8800        38
    60.1000        56
    60.3200        46
    60.5400        46
    60.7600        42
    60.9800        34
    61.2000        48
    61.4200        40
    61.6400        82
    61.8600        58
    62.0800        34
    62.3000        36
    62.5200        36
    62.7400        48
    62.9600        58
    63.1800        76
    63.4000        58
    63.6200        44
    63.8400        34
    64.0600        42
    64.2800        30
    64.5000        28
    64.7200        32
    64.9400        36
    65.0000        28

File: GDS818---Palygorskite.txt
/////////////////////////////////////////////////////////////////////////////////
/// Profile Data Ascii Dump (XRD)                                             ///
/////////////////////////////////////////////////////////////////////////////////

  Group     : Swayze
  Data      : GDS818
  File Name : GDS818.RAW

# Profile Datafile
          comment             = Palygorskite
          date & time         = 08-04-01 06:17:01

# Measurement Condition
    X-ray tube
          target              = Cu
          voltage             = 40.0 (kV)
          current             = 30.0 (mA)
    Slits
          divergence slit     = 2.00000 (deg)
          scatter slit        = 2.00000 (deg)
          receiving slit      = 0.15000 (mm)
    Scanning
          drive axis          = Theta-2Theta
          scan range          =    4.000 -   65.000
          scan mode           = Continuous Scan
          scan speed          =   2.0000 (deg/min)
          sampling pitch      =   0.0200 (deg)
          preset time         =   0.60 (sec)

# Data      [ Total No. = 3051 ]
  <2Theta>   <   I   >
     4.0000       234
     4.2200       240
     4.4400       188
     4.6600       200
     4.8800       170
     5.1000       176
     5.3200       194
     5.5400       192
     5.7600       162
     5.9800       172
     6.2000       178
     6.4200       160
     6.6400       154
     6.8600       162
     7.0800       140
     7.3000       136
     7.5200       150
     7.7400       240
     7.9600       316
     8.1800       532
     8.4000      1200
     8.6200       822
     8.8400       210
     9.0600       162
     9.2800       150
     9.5000       122
     9.7200       118
     9.9400       102
    10.1600       104
    10.3800       104
    10.6000       108
    10.8200       110
    11.0400        98
    11.2600        72
    11.4800       128
    11.7000        96
    11.9200       106
    12.1400        84
    12.3600        82
    12.5800        70
    12.8000        70
    13.0200        76
    13.2400        84
    13.4600       100
    13.6800       158
    13.9000       286
    14.1200       146
    14.3400        88
    14.5600        84
    14.7800        68
    15.0000        62
    15.2200        62
    15.4400        68
    15.6600        50
    15.8800        82
    16.1000       100
    16.3200       214
    16.5400        98
    16.7600        78
    16.9800        68
    17.2000        68
    17.4200        56
    17.6400        68
    17.8600        58
    18.0800        58
    18.3000        60
    18.5200        66
    18.7400        66
    18.9600        60
    19.1800        70
    19.4000        68
    19.6200       172
    19.8400       428
    20.0600       122
    20.2800        80
    20.5000        96
    20.7200       104
    20.9400       106
    21.1600       170
    21.3800       200
    21.6000       150
    21.8200        82
    22.0400        92
    22.2600        62
    22.4800        54
    22.7000        66
    22.9200        60
    23.1400        52
    23.3600        58
    23.5800        48
    23.8000        52
    24.0200        48
    24.2400       134
    24.4600       134
    24.6800        48
    24.9000        58
    25.1200        58
    25.3400        54
    25.5600        52
    25.7800        84
    26.0000        58
    26.2200        60
    26.4400        74
    26.6600        86
    26.8800        84
    27.1000        92
    27.3200       130
    27.5400       150
    27.7600       202
    27.9800       286
    28.2000       320
    28.4200       138
    28.6400        92
    28.8600        58
    29.0800        72
    29.3000        58
    29.5200        62
    29.7400        82
    29.9600        80
    30.1800        54
    30.4000        46
    30.6200        44
    30.8400        42
    31.0600        48
    31.2800        32
    31.5000        32
    31.7200        42
    31.9400        34
    32.1600        36
    32.3800        36
    32.6000        40
    32.8200        70
    33.0400        54
    33.2600        48
    33.4800        40
    33.7000        58
    33.9200        88
    34.1400       102
    34.3600       132
    34.5800       184
    34.8000       174
    35.0200       180
    35.2400       140
    35.4600       164
    35.6800       152
    35.9000       132
    36.1200        66
    36.3400        64
    36.5600        38
    36.7800        42
    37.0000        32
    37.2200        24
    37.4400        38
    37.6600        36
    37.8800        36
    38.1000        50
    38.3200        36
    38.5400        52
    38.7600        60
    38.9800        58
    39.2000        46
    39.4200        58
    39.6400        56
    39.8600        44
    40.0800        48
    40.3000        62
    40.5200        44
    40.7400        48
    40.9600        42
    41.1800        40
    41.4000        52
    41.6200        58
    41.8400        66
    42.0600        68
    42.2800        72
    42.5000       106
    42.7200       120
    42.9400       102
    43.1600        74
    43.3800        36
    43.6000        48
    43.8200        44
    44.0400        38
    44.2600        32
    44.4800        40
    44.7000        30
    44.9200        32
    45.1400        38
    45.3600        34
    45.5800        30
    45.8000        44
    46.0200        22
    46.2400        40
    46.4600        32
    46.6800        30
    46.9000        34
    47.1200        30
    47.3400        28
    47.5600        36
    47.7800        42
    48.0000        38
    48.2200        36
    48.4400        34
    48.6600        42
    48.8800        48
    49.1000        34
    49.3200        30
    49.5400        36
    49.7600        28
    49.9800        28
    50.2000        28
    50.4200        26
    50.6400        66
    50.8600        54
    51.0800        32
    51.3000        36
    51.5200        50
    51.7400        60
    51.9600        50
    52.1800        40
    52.4000        26
    52.6200        32
    52.8400        40
    53.0600        34
    53.2800        34
    53.5000        46
    53.7200        40
    53.9400        32
    54.1600        38
    54.3800        40
    54.6000        58
    54.8200        52
    55.0400        64
    55.2600        46
    55.4800        40
    55.7000        34
    55.9200        30
    56.1400        44
    56.3600        38
    56.5800        32
    56.8000        32
    57.0200        52
    57.2400        32
    57.4600        34
    57.6800        26
    57.9000        34
    58.1200        36
    58.3400        36
    58.5600        38
    58.7800        34
    59.0000        54
    59.2200        32
    59.4400        36
    59.6600        40
    59.8800        48
    60.1000        32
    60.3200        54
    60.5400        62
    60.7600        54
    60.9800        48
    61.2000        34
    61.4200        58
    61.6400        58
    61.8600        44
    62.0800        40
    62.3000        58
    62.5200        56
    62.7400        40
    62.9600        32
    63.1800        26
    63.4000        32
    63.6200        26
    63.8400        34
    64.0600        36
    64.2800        26
    64.5000        24
    64.7200        32
    64.9400        36
    65.0000        38