Folder: spectroscopy-tetracorder/sl1/usgs/library06/DESCRIPT/new_xrd_results_to_be_added/Rhonda_Driscoll_xrd_runs (part 11)

File: GDS444-Aragonite-CO.txt
/////////////////////////////////////////////////////////////////////////////////
/// Profile Data Ascii Dump (XRD)                                             ///
/////////////////////////////////////////////////////////////////////////////////

  Group     : Swayze
  Data      : GDS444
  File Name : GDS444.RAW

# Profile Datafile
          comment             = Aragonite-CO
          date & time         = 08-04-29 08:45:48

# Measurement Condition
    X-ray tube
          target              = Cu
          voltage             = 40.0 (kV)
          current             = 30.0 (mA)
    Slits
          divergence slit     = 2.00000 (deg)
          scatter slit        = 2.00000 (deg)
          receiving slit      = 0.15000 (mm)
    Scanning
          drive axis          = Theta-2Theta
          scan range          =    4.000 -   65.000
          scan mode           = Continuous Scan
          scan speed          =   2.0000 (deg/min)
          sampling pitch      =   0.0200 (deg)
          preset time         =   0.60 (sec)

# Data      [ Total No. = 3051 ]
  <2Theta>   <   I   >
     4.0000       198
     4.2200       172
     4.4400       178
     4.6600       164
     4.8800       150
     5.1000       156
     5.3200       140
     5.5400       138
     5.7600       160
     5.9800       170
     6.2000       152
     6.4200       148
     6.6400       110
     6.8600       122
     7.0800       130
     7.3000       114
     7.5200       102
     7.7400       106
     7.9600       118
     8.1800       104
     8.4000       130
     8.6200        92
     8.8400       124
     9.0600       116
     9.2800       116
     9.5000       106
     9.7200        96
     9.9400        98
    10.1600       102
    10.3800        74
    10.6000        84
    10.8200        84
    11.0400        76
    11.2600        82
    11.4800        60
    11.7000        92
    11.9200        68
    12.1400       104
    12.3600        62
    12.5800        70
    12.8000        68
    13.0200        56
    13.2400        60
    13.4600        64
    13.6800        52
    13.9000        58
    14.1200        66
    14.3400        68
    14.5600        62
    14.7800        48
    15.0000        44
    15.2200        54
    15.4400        50
    15.6600        66
    15.8800        40
    16.1000        58
    16.3200        68
    16.5400        46
    16.7600        34
    16.9800        38
    17.2000        52
    17.4200        46
    17.6400        34
    17.8600        40
    18.0800        30
    18.3000        30
    18.5200        40
    18.7400        50
    18.9600        34
    19.1800        38
    19.4000        40
    19.6200        44
    19.8400        40
    20.0600        34
    20.2800        46
    20.5000        26
    20.7200        40
    20.9400        48
    21.1600        22
    21.3800        48
    21.6000        32
    21.8200        40
    22.0400        48
    22.2600        22
    22.4800        54
    22.7000        44
    22.9200       158
    23.1400        66
    23.3600        38
    23.5800        32
    23.8000        36
    24.0200        32
    24.2400        30
    24.4600        30
    24.6800        28
    24.9000        30
    25.1200        34
    25.3400        30
    25.5600        34
    25.7800        36
    26.0000        54
    26.2200        62
    26.4400        68
    26.6600        36
    26.8800        24
    27.1000        64
    27.3200        46
    27.5400        36
    27.7600        36
    27.9800        62
    28.2000        52
    28.4200        54
    28.6400        66
    28.8600       118
    29.0800       514
    29.3000      5344
    29.5200       796
    29.7400       100
    29.9600        46
    30.1800        48
    30.4000        38
    30.6200        26
    30.8400        26
    31.0600        28
    31.2800        96
    31.5000        56
    31.7200        32
    31.9400        24
    32.1600        24
    32.3800        16
    32.6000        30
    32.8200        34
    33.0400        86
    33.2600        14
    33.4800        20
    33.7000        20
    33.9200        20
    34.1400        28
    34.3600        28
    34.5800        30
    34.8000        22
    35.0200        24
    35.2400        26
    35.4600        44
    35.6800        54
    35.9000       324
    36.1200        94
    36.3400        34
    36.5600        32
    36.7800        26
    37.0000        22
    37.2200        40
    37.4400        20
    37.6600        38
    37.8800        54
    38.1000        32
    38.3200        50
    38.5400        46
    38.7600        26
    38.9800        56
    39.2000       158
    39.4200       340
    39.6400        62
    39.8600        24
    40.0800        24
    40.3000        20
    40.5200        24
    40.7400        24
    40.9600        24
    41.1800        34
    41.4000        16
    41.6200        26
    41.8400        24
    42.0600        26
    42.2800        26
    42.5000        34
    42.7200        44
    42.9400       126
    43.1600       436
    43.3800        60
    43.6000        32
    43.8200        28
    44.0400        30
    44.2600        28
    44.4800        20
    44.7000        22
    44.9200        32
    45.1400        26
    45.3600        32
    45.5800        28
    45.8000        70
    46.0200        36
    46.2400        22
    46.4600        22
    46.6800        38
    46.9000        94
    47.1200       162
    47.3400       416
    47.5600       418
    47.7800        72
    48.0000        56
    48.2200       140
    48.4400       492
    48.6600       178
    48.8800        52
    49.1000        34
    49.3200        24
    49.5400        26
    49.7600        24
    49.9800        20
    50.2000        46
    50.4200        26
    50.6400        18
    50.8600        18
    51.0800        14
    51.3000        18
    51.5200        22
    51.7400        12
    51.9600        18
    52.1800        22
    52.4000        46
    52.6200        28
    52.8400        32
    53.0600        34
    53.2800        22
    53.5000        18
    53.7200        30
    53.9400        22
    54.1600        24
    54.3800        22
    54.6000        26
    54.8200        20
    55.0400        16
    55.2600        16
    55.4800        18
    55.7000        28
    55.9200        20
    56.1400        22
    56.3600        40
    56.5800        90
    56.8000        46
    57.0200        50
    57.2400       120
    57.4600       150
    57.6800        62
    57.9000        36
    58.1200        50
    58.3400        20
    58.5600        22
    58.7800        20
    59.0000        26
    59.2200        24
    59.4400        18
    59.6600        20
    59.8800        18
    60.1000        18
    60.3200        36
    60.5400       104
    60.7600       116
    60.9800       152
    61.2000       110
    61.4200        86
    61.6400        34
    61.8600        38
    62.0800        22
    62.3000        14
    62.5200        24
    62.7400        18
    62.9600        60
    63.1800        42
    63.4000        24
    63.6200        24
    63.8400        24
    64.0600        24
    64.2800        28
    64.5000        90
    64.7200       104
    64.9400        48
    65.0000        44

File: GDS681---Magnesite.txt
/////////////////////////////////////////////////////////////////////////////////
/// Profile Data Ascii Dump (XRD)                                             ///
/////////////////////////////////////////////////////////////////////////////////

  Group     : Swayze
  Data      : GDS681
  File Name : GDS681.RAW

# Profile Datafile
          comment             = Magnesite
          date & time         = 08-03-12 07:31:19

# Measurement Condition
    X-ray tube
          target              = Cu
          voltage             = 40.0 (kV)
          current             = 30.0 (mA)
    Slits
          divergence slit     = 2.00000 (deg)
          scatter slit        = 2.00000 (deg)
          receiving slit      = 0.15000 (mm)
    Scanning
          drive axis          = Theta-2Theta
          scan range          =    4.000 -   65.000
          scan mode           = Continuous Scan
          scan speed          =   2.0000 (deg/min)
          sampling pitch      =   0.0200 (deg)
          preset time         =   0.60 (sec)

# Data      [ Total No. = 3051 ]
  <2Theta>   <   I   >
     4.0000       236
     4.2200       244
     4.4400       202
     4.6600       220
     4.8800       190
     5.1000       208
     5.3200       200
     5.5400       218
     5.7600       204
     5.9800       200
     6.2000       198
     6.4200       194
     6.6400       192
     6.8600       158
     7.0800       142
     7.3000       164
     7.5200       138
     7.7400       160
     7.9600       144
     8.1800       154
     8.4000       154
     8.6200       122
     8.8400       110
     9.0600       140
     9.2800       124
     9.5000       116
     9.7200       128
     9.9400       120
    10.1600       124
    10.3800       138
    10.6000        96
    10.8200       110
    11.0400       104
    11.2600       106
    11.4800        88
    11.7000       104
    11.9200       106
    12.1400        82
    12.3600       104
    12.5800        94
    12.8000        98
    13.0200        78
    13.2400        70
    13.4600        94
    13.6800        78
    13.9000        86
    14.1200       100
    14.3400        80
    14.5600        74
    14.7800        96
    15.0000        96
    15.2200        92
    15.4400        68
    15.6600        74
    15.8800        80
    16.1000       112
    16.3200        86
    16.5400        82
    16.7600        90
    16.9800        84
    17.2000        96
    17.4200        86
    17.6400        88
    17.8600        92
    18.0800       130
    18.3000        90
    18.5200       108
    18.7400       104
    18.9600       110
    19.1800       132
    19.4000       166
    19.6200       130
    19.8400       150
    20.0600       130
    20.2800       154
    20.5000       160
    20.7200       184
    20.9400       170
    21.1600       166
    21.3800       150
    21.6000       166
    21.8200       172
    22.0400       186
    22.2600       180
    22.4800       144
    22.7000       152
    22.9200       164
    23.1400       164
    23.3600       162
    23.5800       146
    23.8000       138
    24.0200       138
    24.2400       118
    24.4600       108
    24.6800       120
    24.9000       128
    25.1200       122
    25.3400       118
    25.5600       126
    25.7800       118
    26.0000        92
    26.2200       134
    26.4400       112
    26.6600        96
    26.8800       100
    27.1000       102
    27.3200        88
    27.5400        94
    27.7600        98
    27.9800       162
    28.2000       100
    28.4200        88
    28.6400        84
    28.8600        86
    29.0800        82
    29.3000        90
    29.5200        82
    29.7400        82
    29.9600        54
    30.1800        72
    30.4000        80
    30.6200        78
    30.8400       102
    31.0600        78
    31.2800       102
    31.5000        78
    31.7200       108
    31.9400       128
    32.1600       280
    32.3800      1760
    32.6000      2010
    32.8200       160
    33.0400       108
    33.2600        74
    33.4800        94
    33.7000        86
    33.9200       112
    34.1400        86
    34.3600        84
    34.5800        96
    34.8000        96
    35.0200       114
    35.2400        92
    35.4600       166
    35.6800       602
    35.9000       178
    36.1200        94
    36.3400        88
    36.5600        72
    36.7800        62
    37.0000        96
    37.2200        78
    37.4400        82
    37.6600        64
    37.8800        50
    38.1000        64
    38.3200        92
    38.5400       136
    38.7600       214
    38.9800        70
    39.2000        62
    39.4200        62
    39.6400        68
    39.8600        70
    40.0800        78
    40.3000        66
    40.5200        64
    40.7400        60
    40.9600        52
    41.1800        54
    41.4000        72
    41.6200        56
    41.8400        72
    42.0600        66
    42.2800        90
    42.5000       166
    42.7200       978
    42.9400      1200
    43.1600       150
    43.3800        74
    43.6000        62
    43.8200        74
    44.0400        64
    44.2600        60
    44.4800        62
    44.7000        46
    44.9200        52
    45.1400        70
    45.3600        46
    45.5800        48
    45.8000        62
    46.0200        62
    46.2400        70
    46.4600       136
    46.6800       588
    46.9000       148
    47.1200        72
    47.3400        62
    47.5600        52
    47.7800        54
    48.0000        68
    48.2200        50
    48.4400        58
    48.6600        50
    48.8800        60
    49.1000        34
    49.3200        56
    49.5400        60
    49.7600        60
    49.9800        56
    50.2000        56
    50.4200        50
    50.6400        60
    50.8600        58
    51.0800        68
    51.3000       116
    51.5200       186
    51.7400        68
    51.9600        64
    52.1800        64
    52.4000        70
    52.6200        62
    52.8400        64
    53.0600        78
    53.2800       110
    53.5000       278
    53.7200      1302
    53.9400       500
    54.1600        94
    54.3800        78
    54.6000        68
    54.8200        56
    55.0400        62
    55.2600        44
    55.4800        48
    55.7000        58
    55.9200        38
    56.1400        58
    56.3600        52
    56.5800        54
    56.8000        42
    57.0200        46
    57.2400        58
    57.4600        46
    57.6800        42
    57.9000        42
    58.1200        46
    58.3400        48
    58.5600        64
    58.7800        68
    59.0000        64
    59.2200        60
    59.4400        48
    59.6600        66
    59.8800        72
    60.1000        68
    60.3200        66
    60.5400        80
    60.7600        92
    60.9800        90
    61.2000       232
    61.4200       118
    61.6400        72
    61.8600        72
    62.0800       118
    62.3000       262
    62.5200       114
    62.7400        64
    62.9600        54
    63.1800        50
    63.4000        48
    63.6200        44
    63.8400        48
    64.0600        46
    64.2800        52
    64.5000        48
    64.7200        58
    64.9400        46
    65.0000        60

File: GDS739B.txt
/////////////////////////////////////////////////////////////////////////////////
/// Profile Data Ascii Dump (XRD)                                             ///
/////////////////////////////////////////////////////////////////////////////////

  Group     : Swayze
  Data      : GDS739B
  File Name : GDS739B.RAW

# Profile Datafile
          comment             =
          date & time         = 08-03-11 06:05:48

# Measurement Condition
    X-ray tube
          target              = Cu
          voltage             = 40.0 (kV)
          current             = 30.0 (mA)
    Slits
          divergence slit     = 2.00000 (deg)
          scatter slit        = 2.00000 (deg)
          receiving slit      = 0.15000 (mm)
    Scanning
          drive axis          = Theta-2Theta
          scan range          =    4.000 -   65.000
          scan mode           = Continuous Scan
          scan speed          =   2.0000 (deg/min)
          sampling pitch      =   0.0200 (deg)
          preset time         =   0.60 (sec)

# Data      [ Total No. = 3051 ]
  <2Theta>   <   I   >
     4.0000       186
     4.2200       186
     4.4400       202
     4.6600       188
     4.8800       188
     5.1000       182
     5.3200       150
     5.5400       158
     5.7600       172
     5.9800       176
     6.2000       180
     6.4200       158
     6.6400       144
     6.8600       126
     7.0800       114
     7.3000       126
     7.5200       116
     7.7400       122
     7.9600       106
     8.1800       124
     8.4000       106
     8.6200       108
     8.8400       124
     9.0600       130
     9.2800       124
     9.5000       126
     9.7200       112
     9.9400       108
    10.1600        86
    10.3800       104
    10.6000        98
    10.8200       126
    11.0400        94
    11.2600        94
    11.4800        78
    11.7000       100
    11.9200        78
    12.1400        82
    12.3600        84
    12.5800        76
    12.8000        88
    13.0200        78
    13.2400        84
    13.4600        74
    13.6800        74
    13.9000        50
    14.1200        72
    14.3400        70
    14.5600        70
    14.7800        72
    15.0000        68
    15.2200        68
    15.4400        98
    15.6600       240
    15.8800        60
    16.1000        80
    16.3200        62
    16.5400        66
    16.7600        68
    16.9800        68
    17.2000        94
    17.4200       254
    17.6400       670
    17.8600      1064
    18.0800       316
    18.3000        82
    18.5200        74
    18.7400        62
    18.9600        38
    19.1800        56
    19.4000        50
    19.6200        42
    19.8400        42
    20.0600        50
    20.2800        70
    20.5000        50
    20.7200        48
    20.9400        68
    21.1600        38
    21.3800        42
    21.6000        54
    21.8200        36
    22.0400        46
    22.2600        44
    22.4800        42
    22.7000        66
    22.9200        58
    23.1400        62
    23.3600        40
    23.5800        42
    23.8000        42
    24.0200        48
    24.2400        58
    24.4600        70
    24.6800        80
    24.9000       114
    25.1200       386
    25.3400      1482
    25.5600       168
    25.7800        66
    26.0000        52
    26.2200        50
    26.4400        66
    26.6600        48
    26.8800        32
    27.1000        50
    27.3200        46
    27.5400        42
    27.7600        36
    27.9800        48
    28.2000        52
    28.4200        80
    28.6400        70
    28.8600       180
    29.0800       278
    29.3000       320
    29.5200       542
    29.7400       756
    29.9600       938
    30.1800       592
    30.4000       190
    30.6200        88
    30.8400        62
    31.0600       132
    31.2800       400
    31.5000        84
    31.7200       122
    31.9400        64
    32.1600        36
    32.3800        32
    32.6000        20
    32.8200        38
    33.0400        32
    33.2600        32
    33.4800        28
    33.7000        42
    33.9200        32
    34.1400        28
    34.3600        32
    34.5800        40
    34.8000        28
    35.0200        40
    35.2400        24
    35.4600        38
    35.6800        40
    35.9000        52
    36.1200       138
    36.3400        48
    36.5600        40
    36.7800        28
    37.0000        26
    37.2200        22
    37.4400        34
    37.6600        26
    37.8800        36
    38.1000        42
    38.3200        68
    38.5400       304
    38.7600        52
    38.9800        32
    39.2000        40
    39.4200        50
    39.6400        54
    39.8600       172
    40.0800       416
    40.3000       196
    40.5200       138
    40.7400       274
    40.9600        74
    41.1800       120
    41.4000        46
    41.6200        36
    41.8400        30
    42.0600        28
    42.2800        26
    42.5000        30
    42.7200        32
    42.9400        34
    43.1600       114
    43.3800        60
    43.6000        24
    43.8200        24
    44.0400        36
    44.2600        34
    44.4800        38
    44.7000        36
    44.9200        34
    45.1400        36
    45.3600       100
    45.5800        34
    45.8000        38
    46.0200        36
    46.2400        66
    46.4600        74
    46.6800       132
    46.9000       130
    47.1200        98
    47.3400       112
    47.5600       132
    47.7800       202
    48.0000       148
    48.2200       158
    48.4400       242
    48.6600       226
    48.8800        64
    49.1000        72
    49.3200        50
    49.5400        36
    49.7600        42
    49.9800        28
    50.2000        24
    50.4200        52
    50.6400        48
    50.8600        34
    51.0800        66
    51.3000        58
    51.5200        46
    51.7400        56
    51.9600       114
    52.1800       266
    52.4000       124
    52.6200        90
    52.8400        50
    53.0600        50
    53.2800        58
    53.5000        32
    53.7200        38
    53.9400        40
    54.1600        34
    54.3800        42
    54.6000        50
    54.8200        42
    55.0400        52
    55.2600        66
    55.4800       100
    55.7000       170
    55.9200        66
    56.1400        44
    56.3600        48
    56.5800        48
    56.8000        22
    57.0200        38
    57.2400        38
    57.4600        38
    57.6800        68
    57.9000        50
    58.1200        42
    58.3400        50
    58.5600        48
    58.7800        78
    59.0000        82
    59.2200        74
    59.4400        74
    59.6600        66
    59.8800        58
    60.1000        38
    60.3200        46
    60.5400       108
    60.7600        62
    60.9800        50
    61.2000        62
    61.4200        66
    61.6400        50
    61.8600        56
    62.0800        94
    62.3000       114
    62.5200       136
    62.7400       184
    62.9600       166
    63.1800       112
    63.4000        72
    63.6200        50
    63.8400        38
    64.0600        36
    64.2800        26
    64.5000        32
    64.7200        38
    64.9400        28
    65.0000        28