Folder: spectroscopy-tetracorder/sl1/usgs/library06/DESCRIPT/new_xrd_results_to_be_added/Rhonda_Driscoll_xrd_runs (part 9)

File: GDS158---Clinochlore--.txt
/////////////////////////////////////////////////////////////////////////////////
/// Profile Data Ascii Dump (XRD)                                             ///
/////////////////////////////////////////////////////////////////////////////////

  Group     : Swayze
  Data      : GDS158
  File Name : GDS158.RAW

# Profile Datafile
          comment             = Clinochlore
          date & time         = 08-04-14 08:24:53

# Measurement Condition
    X-ray tube
          target              = Cu
          voltage             = 40.0 (kV)
          current             = 30.0 (mA)
    Slits
          divergence slit     = 2.00000 (deg)
          scatter slit        = 2.00000 (deg)
          receiving slit      = 0.15000 (mm)
    Scanning
          drive axis          = Theta-2Theta
          scan range          =    4.000 -   65.000
          scan mode           = Continuous Scan
          scan speed          =   2.0000 (deg/min)
          sampling pitch      =   0.0200 (deg)
          preset time         =   0.60 (sec)

# Data      [ Total No. = 3051 ]
  <2Theta>   <   I   >
     4.0000       188
     4.2200       204
     4.4400       172
     4.6600       164
     4.8800       168
     5.1000       178
     5.3200       174
     5.5400       208
     5.7600       254
     5.9800       508
     6.2000      1940
     6.4200       188
     6.6400       148
     6.8600       124
     7.0800       104
     7.3000       126
     7.5200       140
     7.7400       132
     7.9600       126
     8.1800        92
     8.4000        92
     8.6200       126
     8.8400       132
     9.0600        98
     9.2800       112
     9.5000       100
     9.7200       116
     9.9400       128
    10.1600        92
    10.3800        86
    10.6000       100
    10.8200       118
    11.0400        96
    11.2600       108
    11.4800       110
    11.7000       104
    11.9200       268
    12.1400       744
    12.3600      4992
    12.5800       388
    12.8000       112
    13.0200        72
    13.2400        78
    13.4600        76
    13.6800        76
    13.9000        66
    14.1200        66
    14.3400        70
    14.5600        78
    14.7800        60
    15.0000        76
    15.2200        58
    15.4400        60
    15.6600        70
    15.8800        58
    16.1000        70
    16.3200        70
    16.5400        60
    16.7600        64
    16.9800        68
    17.2000        76
    17.4200        58
    17.6400        72
    17.8600        84
    18.0800        80
    18.3000       206
    18.5200      1074
    18.7400      3868
    18.9600       170
    19.1800        94
    19.4000        98
    19.6200        84
    19.8400        62
    20.0600        80
    20.2800        58
    20.5000        68
    20.7200        52
    20.9400        54
    21.1600        50
    21.3800        66
    21.6000        50
    21.8200        66
    22.0400        56
    22.2600        58
    22.4800        80
    22.7000        52
    22.9200        62
    23.1400        62
    23.3600        48
    23.5800        62
    23.8000        68
    24.0200        74
    24.2400        94
    24.4600       134
    24.6800       398
    24.9000      3194
    25.1200      5032
    25.3400       228
    25.5600        96
    25.7800        76
    26.0000        56
    26.2200        52
    26.4400        58
    26.6600        64
    26.8800        60
    27.1000        56
    27.3200        86
    27.5400        50
    27.7600        50
    27.9800        52
    28.2000        52
    28.4200        58
    28.6400        52
    28.8600        44
    29.0800        42
    29.3000        48
    29.5200        36
    29.7400        40
    29.9600        46
    30.1800        48
    30.4000        52
    30.6200        58
    30.8400        56
    31.0600       112
    31.2800       464
    31.5000      2162
    31.7200       150
    31.9400        66
    32.1600        42
    32.3800        44
    32.6000        36
    32.8200        30
    33.0400        44
    33.2600        38
    33.4800        60
    33.7000        46
    33.9200        44
    34.1400        26
    34.3600        62
    34.5800        88
    34.8000        52
    35.0200        90
    35.2400        92
    35.4600        44
    35.6800        38
    35.9000        46
    36.1200        42
    36.3400        46
    36.5600        90
    36.7800        74
    37.0000        36
    37.2200        40
    37.4400        58
    37.6600        92
    37.8800        66
    38.1000        62
    38.3200        48
    38.5400        32
    38.7600        38
    38.9800        34
    39.2000        36
    39.4200        46
    39.6400        74
    39.8600        68
    40.0800        26
    40.3000        46
    40.5200        30
    40.7400        38
    40.9600        34
    41.1800        30
    41.4000        48
    41.6200        34
    41.8400        34
    42.0600        44
    42.2800        22
    42.5000        22
    42.7200        36
    42.9400        24
    43.1600        50
    43.3800        44
    43.6000        60
    43.8200        36
    44.0400        44
    44.2600        52
    44.4800       118
    44.7000       504
    44.9200       140
    45.1400       204
    45.3600        94
    45.5800        42
    45.8000        32
    46.0200        36
    46.2400        42
    46.4600        36
    46.6800        30
    46.9000        38
    47.1200        34
    47.3400        42
    47.5600        36
    47.7800        44
    48.0000        64
    48.2200       104
    48.4400        62
    48.6600        40
    48.8800        38
    49.1000        36
    49.3200        44
    49.5400        30
    49.7600        66
    49.9800        72
    50.2000        42
    50.4200        28
    50.6400        32
    50.8600        30
    51.0800        32
    51.3000        36
    51.5200        32
    51.7400        38
    51.9600        26
    52.1800        38
    52.4000        28
    52.6200        20
    52.8400        32
    53.0600        36
    53.2800        52
    53.5000        48
    53.7200        34
    53.9400        38
    54.1600        44
    54.3800        26
    54.6000        18
    54.8200        38
    55.0400        66
    55.2600        72
    55.4800        26
    55.7000        36
    55.9200        36
    56.1400        56
    56.3600        34
    56.5800        42
    56.8000        28
    57.0200        34
    57.2400        40
    57.4600        20
    57.6800        42
    57.9000        28
    58.1200        50
    58.3400        48
    58.5600       154
    58.7800       252
    59.0000       180
    59.2200        98
    59.4400        52
    59.6600        44
    59.8800        84
    60.1000        68
    60.3200        40
    60.5400        48
    60.7600        52
    60.9800        34
    61.2000        48
    61.4200        32
    61.6400        48
    61.8600        30
    62.0800        44
    62.3000        28
    62.5200        26
    62.7400        32
    62.9600        34
    63.1800        30
    63.4000        46
    63.6200        28
    63.8400        32
    64.0600        34
    64.2800        46
    64.5000        28
    64.7200        42
    64.9400        52
    65.0000        38

File: GDS159---Clinochlore-or-Sheridanite.txt
/////////////////////////////////////////////////////////////////////////////////
/// Profile Data Ascii Dump (XRD)                                             ///
/////////////////////////////////////////////////////////////////////////////////

  Group     : Swayze
  Data      : GDS159
  File Name : GDS159.RAW

# Profile Datafile
          comment             = Clinochlore or Sheridanite
          date & time         = 08-04-14 07:20:35

# Measurement Condition
    X-ray tube
          target              = Cu
          voltage             = 40.0 (kV)
          current             = 30.0 (mA)
    Slits
          divergence slit     = 2.00000 (deg)
          scatter slit        = 2.00000 (deg)
          receiving slit      = 0.15000 (mm)
    Scanning
          drive axis          = Theta-2Theta
          scan range          =    4.000 -   65.000
          scan mode           = Continuous Scan
          scan speed          =   2.0000 (deg/min)
          sampling pitch      =   0.0200 (deg)
          preset time         =   0.60 (sec)

# Data      [ Total No. = 3051 ]
  <2Theta>   <   I   >
     4.0000       180
     4.2200       206
     4.4400       182
     4.6600       202
     4.8800       170
     5.1000       156
     5.3200       196
     5.5400       214
     5.7600       290
     5.9800       368
     6.2000       402
     6.4200       194
     6.6400       130
     6.8600       138
     7.0800       126
     7.3000       120
     7.5200       130
     7.7400       108
     7.9600       102
     8.1800       112
     8.4000       130
     8.6200       120
     8.8400       132
     9.0600       120
     9.2800       160
     9.5000       116
     9.7200       116
     9.9400       108
    10.1600        98
    10.3800       100
    10.6000       112
    10.8200        98
    11.0400       110
    11.2600       128
    11.4800       112
    11.7000       122
    11.9200       192
    12.1400       474
    12.3600       816
    12.5800       154
    12.8000        84
    13.0200        58
    13.2400        74
    13.4600        86
    13.6800        80
    13.9000        76
    14.1200        56
    14.3400        78
    14.5600        72
    14.7800        70
    15.0000        60
    15.2200        64
    15.4400        52
    15.6600        68
    15.8800        72
    16.1000        64
    16.3200        70
    16.5400        64
    16.7600        68
    16.9800        58
    17.2000        76
    17.4200        54
    17.6400        84
    17.8600       104
    18.0800       128
    18.3000       314
    18.5200      1002
    18.7400       344
    18.9600       156
    19.1800       324
    19.4000       204
    19.6200       178
    19.8400       146
    20.0600       136
    20.2800       112
    20.5000       112
    20.7200       142
    20.9400       102
    21.1600       110
    21.3800       112
    21.6000       102
    21.8200        94
    22.0400        84
    22.2600        98
    22.4800        70
    22.7000        84
    22.9200       104
    23.1400       108
    23.3600        88
    23.5800        88
    23.8000       100
    24.0200       114
    24.2400       110
    24.4600       170
    24.6800       538
    24.9000      1166
    25.1200       304
    25.3400       148
    25.5600       108
    25.7800        96
    26.0000        88
    26.2200        86
    26.4400       100
    26.6600        80
    26.8800        76
    27.1000        64
    27.3200        92
    27.5400        60
    27.7600        80
    27.9800        66
    28.2000        64
    28.4200       100
    28.6400        76
    28.8600        84
    29.0800        62
    29.3000        66
    29.5200        74
    29.7400        48
    29.9600        50
    30.1800        48
    30.4000        66
    30.6200        68
    30.8400        98
    31.0600       234
    31.2800       366
    31.5000       136
    31.7200        52
    31.9400        76
    32.1600        70
    32.3800        42
    32.6000        60
    32.8200        60
    33.0400        42
    33.2600        62
    33.4800        66
    33.7000        92
    33.9200        82
    34.1400        66
    34.3600       132
    34.5800       354
    34.8000       204
    35.0200       300
    35.2400       718
    35.4600       186
    35.6800        86
    35.9000        94
    36.1200       106
    36.3400       116
    36.5600       344
    36.7800       512
    37.0000       152
    37.2200        92
    37.4400       148
    37.6600       270
    37.8800       158
    38.1000        76
    38.3200        58
    38.5400        38
    38.7600        56
    38.9800        80
    39.2000        64
    39.4200        80
    39.6400       176
    39.8600       200
    40.0800        92
    40.3000        64
    40.5200        62
    40.7400        70
    40.9600        52
    41.1800        50
    41.4000        54
    41.6200        32
    41.8400        32
    42.0600        40
    42.2800        46
    42.5000        46
    42.7200        44
    42.9400        50
    43.1600        52
    43.3800        74
    43.6000        82
    43.8200        80
    44.0400        66
    44.2600       126
    44.4800       134
    44.7000       152
    44.9200       324
    45.1400       442
    45.3600       194
    45.5800        96
    45.8000        64
    46.0200        46
    46.2400        44
    46.4600        46
    46.6800        44
    46.9000        52
    47.1200        52
    47.3400        46
    47.5600        50
    47.7800        84
    48.0000       132
    48.2200       178
    48.4400       104
    48.6600        68
    48.8800        54
    49.1000        62
    49.3200        54
    49.5400        96
    49.7600       164
    49.9800       124
    50.2000        64
    50.4200        56
    50.6400        40
    50.8600        50
    51.0800        40
    51.3000        54
    51.5200        34
    51.7400        42
    51.9600        44
    52.1800        48
    52.4000        78
    52.6200        78
    52.8400        82
    53.0600        90
    53.2800        78
    53.5000        82
    53.7200        56
    53.9400        50
    54.1600        44
    54.3800        48
    54.6000        66
    54.8200       100
    55.0400       100
    55.2600        86
    55.4800        60
    55.7000        56
    55.9200        56
    56.1400        48
    56.3600        52
    56.5800        66
    56.8000        50
    57.0200        52
    57.2400        48
    57.4600        58
    57.6800        46
    57.9000        52
    58.1200       116
    58.3400       164
    58.5600       222
    58.7800       264
    59.0000       194
    59.2200       122
    59.4400        74
    59.6600        76
    59.8800       150
    60.1000       446
    60.3200       236
    60.5400       108
    60.7600        68
    60.9800        60
    61.2000        58
    61.4200        86
    61.6400       156
    61.8600        98
    62.0800        62
    62.3000        40
    62.5200        48
    62.7400        62
    62.9600        38
    63.1800        42
    63.4000        58
    63.6200        74
    63.8400        62
    64.0600        30
    64.2800        34
    64.5000        46
    64.7200        42
    64.9400        48
    65.0000        60

File: GDS182-Penninite.txt
/////////////////////////////////////////////////////////////////////////////////
/// Profile Data Ascii Dump (XRD)                                             ///
/////////////////////////////////////////////////////////////////////////////////

  Group     : Swayze
  Data      : GDS182
  File Name : GDS182.RAW

# Profile Datafile
          comment             = Penninite
          date & time         = 08-04-28 07:49:23

# Measurement Condition
    X-ray tube
          target              = Cu
          voltage             = 40.0 (kV)
          current             = 30.0 (mA)
    Slits
          divergence slit     = 2.00000 (deg)
          scatter slit        = 2.00000 (deg)
          receiving slit      = 0.15000 (mm)
    Scanning
          drive axis          = Theta-2Theta
          scan range          =    4.000 -   65.000
          scan mode           = Continuous Scan
          scan speed          =   2.0000 (deg/min)
          sampling pitch      =   0.0200 (deg)
          preset time         =   0.60 (sec)

# Data      [ Total No. = 3051 ]
  <2Theta>   <   I   >
     4.0000       192
     4.2200       178
     4.4400       180
     4.6600       182
     4.8800       186
     5.1000       174
     5.3200       188
     5.5400       208
     5.7600       298
     5.9800       636
     6.2000      1376
     6.4200       176
     6.6400       164
     6.8600       136
     7.0800       124
     7.3000       132
     7.5200       128
     7.7400       126
     7.9600       126
     8.1800        94
     8.4000       110
     8.6200       116
     8.8400       118
     9.0600       130
     9.2800       114
     9.5000       126
     9.7200        98
     9.9400       106
    10.1600        84
    10.3800       104
    10.6000       106
    10.8200       106
    11.0400       110
    11.2600       104
    11.4800       134
    11.7000       162
    11.9200       406
    12.1400      1228
    12.3600      6584
    12.5800       244
    12.8000       110
    13.0200        96
    13.2400        74
    13.4600        70
    13.6800        80
    13.9000        74
    14.1200        52
    14.3400        76
    14.5600        66
    14.7800        50
    15.0000        48
    15.2200        68
    15.4400        60
    15.6600        62
    15.8800        80
    16.1000        66
    16.3200        78
    16.5400        68
    16.7600        70
    16.9800        82
    17.2000        68
    17.4200        86
    17.6400        80
    17.8600       102
    18.0800       210
    18.3000       832
    18.5200      8148
    18.7400       576
    18.9600       138
    19.1800       112
    19.4000        74
    19.6200        74
    19.8400        80
    20.0600        56
    20.2800        60
    20.5000        56
    20.7200        66
    20.9400        42
    21.1600        66
    21.3800        60
    21.6000        56
    21.8200        60
    22.0400        62
    22.2600        78
    22.4800        46
    22.7000        72
    22.9200        72
    23.1400        60
    23.3600        58
    23.5800        78
    23.8000       116
    24.0200       122
    24.2400       150
    24.4600       394
    24.6800      2150
    24.9000      8524
    25.1200       354
    25.3400       120
    25.5600        66
    25.7800        64
    26.0000        58
    26.2200        56
    26.4400        60
    26.6600        50
    26.8800        50
    27.1000        54
    27.3200        48
    27.5400        58
    27.7600        46
    27.9800        52
    28.2000        52
    28.4200        38
    28.6400        44
    28.8600        46
    29.0800        38
    29.3000        40
    29.5200        54
    29.7400        56
    29.9600        70
    30.1800        60
    30.4000        54
    30.6200        86
    30.8400       170
    31.0600       986
    31.2800      2548
    31.5000       138
    31.7200        68
    31.9400        54
    32.1600        48
    32.3800        46
    32.6000        38
    32.8200        34
    33.0400        28
    33.2600        32
    33.4800        42
    33.7000        20
    33.9200        28
    34.1400        48
    34.3600        38
    34.5800        88
    34.8000        78
    35.0200        64
    35.2400       120
    35.4600        56
    35.6800        44
    35.9000        38
    36.1200        44
    36.3400        46
    36.5600        78
    36.7800        94
    37.0000        48
    37.2200        46
    37.4400        52
    37.6600       188
    37.8800        58
    38.1000        50
    38.3200        54
    38.5400        42
    38.7600        28
    38.9800        38
    39.2000        42
    39.4200        56
    39.6400        62
    39.8600        58
    40.0800        38
    40.3000        30
    40.5200        32
    40.7400        38
    40.9600        28
    41.1800        38
    41.4000        34
    41.6200        30
    41.8400        34
    42.0600        32
    42.2800        30
    42.5000        50
    42.7200        50
    42.9400        32
    43.1600        50
    43.3800        44
    43.6000        56
    43.8200        52
    44.0400       142
    44.2600      1148
    44.4800       130
    44.7000        74
    44.9200       104
    45.1400        98
    45.3600        64
    45.5800        56
    45.8000        26
    46.0200        42
    46.2400        26
    46.4600        28
    46.6800        32
    46.9000        34
    47.1200        36
    47.3400        34
    47.5600        34
    47.7800        40
    48.0000        60
    48.2200        34
    48.4400        32
    48.6600        36
    48.8800        42
    49.1000        36
    49.3200        44
    49.5400        52
    49.7600        58
    49.9800        42
    50.2000        34
    50.4200        38
    50.6400        38
    50.8600        44
    51.0800        90
    51.3000        28
    51.5200        32
    51.7400        26
    51.9600        38
    52.1800        36
    52.4000        30
    52.6200        48
    52.8400        34
    53.0600        48
    53.2800        30
    53.5000        38
    53.7200        36
    53.9400        30
    54.1600        46
    54.3800        32
    54.6000        36
    54.8200        48
    55.0400        42
    55.2600        32
    55.4800        32
    55.7000        40
    55.9200        34
    56.1400        40
    56.3600        38
    56.5800        28
    56.8000        36
    57.0200        32
    57.2400        38
    57.4600        38
    57.6800        46
    57.9000       168
    58.1200       110
    58.3400        72
    58.5600       108
    58.7800        94
    59.0000        44
    59.2200        54
    59.4400        36
    59.6600        50
    59.8800        58
    60.1000        78
    60.3200        54
    60.5400        60
    60.7600        26
    60.9800        44
    61.2000        38
    61.4200        38
    61.6400        40
    61.8600        42
    62.0800        20
    62.3000        38
    62.5200        30
    62.7400        50
    62.9600        32
    63.1800        22
    63.4000        32
    63.6200        28
    63.8400        30
    64.0600        32
    64.2800        38
    64.5000        36
    64.7200        36
    64.9400       128
    65.0000       266