Folder: spectroscopy-tetracorder/sl1/usgs/library06/DESCRIPT/new_xrd_results_to_be_added/Rhonda_Driscoll_xrd_runs (part 15)

File: LV95-30-Epsomite.txt
/////////////////////////////////////////////////////////////////////////////////
/// Profile Data Ascii Dump (XRD)                                             ///
/////////////////////////////////////////////////////////////////////////////////

  Group     : Swayze
  Data      : LV95-30
  File Name : LV95-30.RAW

# Profile Datafile
          comment             = Epsomite
          date & time         = 08-04-09 08:22:13

# Measurement Condition
    X-ray tube
          target              = Cu
          voltage             = 40.0 (kV)
          current             = 30.0 (mA)
    Slits
          divergence slit     = 2.00000 (deg)
          scatter slit        = 2.00000 (deg)
          receiving slit      = 0.15000 (mm)
    Scanning
          drive axis          = Theta-2Theta
          scan range          =    4.000 -   65.000
          scan mode           = Continuous Scan
          scan speed          =   2.0000 (deg/min)
          sampling pitch      =   0.0200 (deg)
          preset time         =   0.60 (sec)

# Data      [ Total No. = 3051 ]
  <2Theta>   <   I   >
     4.0000       184
     4.2200       218
     4.4400       184
     4.6600       160
     4.8800       182
     5.1000       176
     5.3200       178
     5.5400       154
     5.7600       166
     5.9800       152
     6.2000       184
     6.4200       150
     6.6400       170
     6.8600       150
     7.0800       138
     7.3000       128
     7.5200       144
     7.7400       110
     7.9600       116
     8.1800       140
     8.4000       150
     8.6200       156
     8.8400       120
     9.0600       142
     9.2800       130
     9.5000       126
     9.7200       102
     9.9400        90
    10.1600       120
    10.3800       104
    10.6000        88
    10.8200       112
    11.0400       106
    11.2600       110
    11.4800       128
    11.7000        96
    11.9200        88
    12.1400        98
    12.3600       104
    12.5800       100
    12.8000       206
    13.0200        72
    13.2400        86
    13.4600        76
    13.6800        80
    13.9000        80
    14.1200        62
    14.3400        66
    14.5600        84
    14.7800        74
    15.0000        48
    15.2200        62
    15.4400        72
    15.6600        76
    15.8800        72
    16.1000       224
    16.3200        62
    16.5400        50
    16.7600        64
    16.9800        72
    17.2000        70
    17.4200        64
    17.6400        64
    17.8600        64
    18.0800        58
    18.3000        72
    18.5200        94
    18.7400       178
    18.9600        74
    19.1800        88
    19.4000       142
    19.6200       382
    19.8400       238
    20.0600       104
    20.2800        88
    20.5000       226
    20.7200       304
    20.9400        96
    21.1600        86
    21.3800        88
    21.6000        68
    21.8200       132
    22.0400        86
    22.2600       316
    22.4800       122
    22.7000        82
    22.9200        70
    23.1400       120
    23.3600       134
    23.5800       102
    23.8000        62
    24.0200       120
    24.2400        76
    24.4600        98
    24.6800       110
    24.9000        88
    25.1200        80
    25.3400       118
    25.5600       114
    25.7800        84
    26.0000       300
    26.2200       266
    26.4400      1754
    26.6600       202
    26.8800       122
    27.1000       140
    27.3200       278
    27.5400       358
    27.7600       194
    27.9800       156
    28.2000        90
    28.4200        68
    28.6400        78
    28.8600        70
    29.0800        64
    29.3000        64
    29.5200        96
    29.7400       190
    29.9600       180
    30.1800       368
    30.4000       104
    30.6200        96
    30.8400       166
    31.0600        78
    31.2800        60
    31.5000        46
    31.7200        74
    31.9400        98
    32.1600       186
    32.3800        98
    32.6000       122
    32.8200        82
    33.0400        96
    33.2600        78
    33.4800        76
    33.7000        86
    33.9200        58
    34.1400        70
    34.3600       120
    34.5800       166
    34.8000       182
    35.0200       150
    35.2400        78
    35.4600        78
    35.6800        78
    35.9000        88
    36.1200       108
    36.3400       256
    36.5600       102
    36.7800       136
    37.0000       136
    37.2200        82
    37.4400       110
    37.6600        96
    37.8800       126
    38.1000       162
    38.3200        72
    38.5400        70
    38.7600        86
    38.9800        56
    39.2000       114
    39.4200       158
    39.6400       142
    39.8600        72
    40.0800       110
    40.3000        88
    40.5200        90
    40.7400        50
    40.9600        60
    41.1800        74
    41.4000        66
    41.6200        52
    41.8400        46
    42.0600        78
    42.2800       150
    42.5000        68
    42.7200        70
    42.9400        60
    43.1600        52
    43.3800        54
    43.6000        62
    43.8200        48
    44.0400        68
    44.2600        50
    44.4800        58
    44.7000        44
    44.9200        48
    45.1400        66
    45.3600        72
    45.5800        96
    45.8000        96
    46.0200       106
    46.2400        66
    46.4600        56
    46.6800        66
    46.9000        74
    47.1200        44
    47.3400        42
    47.5600        54
    47.7800        66
    48.0000        66
    48.2200        64
    48.4400        76
    48.6600        74
    48.8800        50
    49.1000        52
    49.3200        58
    49.5400        42
    49.7600        64
    49.9800       262
    50.2000        82
    50.4200        80
    50.6400       104
    50.8600        66
    51.0800        60
    51.3000        54
    51.5200        48
    51.7400        40
    51.9600        48
    52.1800        58
    52.4000        70
    52.6200        52
    52.8400        50
    53.0600        80
    53.2800        72
    53.5000        46
    53.7200        54
    53.9400        54
    54.1600        32
    54.3800        42
    54.6000        86
    54.8200        92
    55.0400       106
    55.2600        90
    55.4800        92
    55.7000        70
    55.9200        58
    56.1400        98
    56.3600        72
    56.5800        54
    56.8000        46
    57.0200        60
    57.2400        56
    57.4600        56
    57.6800        58
    57.9000        62
    58.1200        50
    58.3400        52
    58.5600        64
    58.7800        56
    59.0000        56
    59.2200        64
    59.4400        56
    59.6600        96
    59.8800       140
    60.1000        88
    60.3200        64
    60.5400        52
    60.7600        64
    60.9800        68
    61.2000       116
    61.4200       104
    61.6400        98
    61.8600        66
    62.0800        74
    62.3000        60
    62.5200        52
    62.7400        48
    62.9600        50
    63.1800        34
    63.4000        42
    63.6200        58
    63.8400        86
    64.0600       106
    64.2800        72
    64.5000        60
    64.7200        64
    64.9400        30
    65.0000        48

File: No.-197.1B---Chlorite.txt
/////////////////////////////////////////////////////////////////////////////////
/// Profile Data Ascii Dump (XRD)                                             ///
/////////////////////////////////////////////////////////////////////////////////

  Group     : Swayze
  Data      : No 197 1B
  File Name : No 197 1B.RAW

# Profile Datafile
          comment             = Chlorite
          date & time         = 08-03-13 06:21:52

# Measurement Condition
    X-ray tube
          target              = Cu
          voltage             = 40.0 (kV)
          current             = 30.0 (mA)
    Slits
          divergence slit     = 2.00000 (deg)
          scatter slit        = 2.00000 (deg)
          receiving slit      = 0.15000 (mm)
    Scanning
          drive axis          = Theta-2Theta
          scan range          =    4.000 -   65.000
          scan mode           = Continuous Scan
          scan speed          =   2.0000 (deg/min)
          sampling pitch      =   0.0200 (deg)
          preset time         =   0.60 (sec)

# Data      [ Total No. = 3051 ]
  <2Theta>   <   I   >
     4.0000       180
     4.2200       194
     4.4400       176
     4.6600       184
     4.8800       158
     5.1000       182
     5.3200       194
     5.5400       212
     5.7600       232
     5.9800       352
     6.2000       286
     6.4200       160
     6.6400       142
     6.8600       136
     7.0800       150
     7.3000       124
     7.5200       140
     7.7400       100
     7.9600       132
     8.1800       124
     8.4000       118
     8.6200       124
     8.8400       128
     9.0600       114
     9.2800       116
     9.5000       140
     9.7200       156
     9.9400       124
    10.1600       104
    10.3800       116
    10.6000       112
    10.8200       144
    11.0400       100
    11.2600        96
    11.4800       106
    11.7000       138
    11.9200       162
    12.1400       336
    12.3600       860
    12.5800       140
    12.8000       102
    13.0200        94
    13.2400        62
    13.4600        94
    13.6800        80
    13.9000        82
    14.1200        78
    14.3400        70
    14.5600        78
    14.7800        80
    15.0000        78
    15.2200        62
    15.4400        68
    15.6600        80
    15.8800        66
    16.1000        86
    16.3200        72
    16.5400        84
    16.7600        60
    16.9800        74
    17.2000        66
    17.4200        78
    17.6400        84
    17.8600        82
    18.0800       106
    18.3000       192
    18.5200       532
    18.7400       274
    18.9600       136
    19.1800       264
    19.4000       190
    19.6200       138
    19.8400       138
    20.0600       100
    20.2800        94
    20.5000       130
    20.7200       122
    20.9400        98
    21.1600       108
    21.3800        90
    21.6000        66
    21.8200       120
    22.0400        76
    22.2600        92
    22.4800        82
    22.7000        90
    22.9200        88
    23.1400        82
    23.3600        88
    23.5800        80
    23.8000        76
    24.0200        82
    24.2400        94
    24.4600       118
    24.6800       252
    24.9000      1006
    25.1200       210
    25.3400       100
    25.5600        74
    25.7800        62
    26.0000        66
    26.2200        56
    26.4400        58
    26.6600        70
    26.8800        64
    27.1000        74
    27.3200        54
    27.5400        64
    27.7600        56
    27.9800        64
    28.2000        40
    28.4200        62
    28.6400        56
    28.8600        62
    29.0800        52
    29.3000        48
    29.5200        78
    29.7400        50
    29.9600        54
    30.1800        60
    30.4000        60
    30.6200        50
    30.8400        46
    31.0600        84
    31.2800       278
    31.5000       122
    31.7200        78
    31.9400        54
    32.1600        60
    32.3800        52
    32.6000        34
    32.8200        54
    33.0400        54
    33.2600        48
    33.4800        94
    33.7000        80
    33.9200        68
    34.1400        84
    34.3600       182
    34.5800       340
    34.8000       180
    35.0200       382
    35.2400       398
    35.4600       136
    35.6800       100
    35.9000       108
    36.1200       112
    36.3400       132
    36.5600       386
    36.7800       276
    37.0000       130
    37.2200       118
    37.4400       174
    37.6600       214
    37.8800       120
    38.1000        56
    38.3200        66
    38.5400        66
    38.7600        68
    38.9800        62
    39.2000        82
    39.4200        94
    39.6400       188
    39.8600       146
    40.0800        80
    40.3000        66
    40.5200        46
    40.7400        56
    40.9600        56
    41.1800        56
    41.4000        34
    41.6200        44
    41.8400        38
    42.0600        48
    42.2800        58
    42.5000        46
    42.7200        52
    42.9400        56
    43.1600        60
    43.3800        62
    43.6000        66
    43.8200        70
    44.0400        72
    44.2600        80
    44.4800       124
    44.7000       142
    44.9200       256
    45.1400       336
    45.3600       120
    45.5800        90
    45.8000        64
    46.0200        46
    46.2400        46
    46.4600        52
    46.6800        48
    46.9000        42
    47.1200        48
    47.3400        50
    47.5600        46
    47.7800        60
    48.0000       110
    48.2200       120
    48.4400        88
    48.6600        64
    48.8800        58
    49.1000        54
    49.3200        60
    49.5400        94
    49.7600       122
    49.9800       106
    50.2000        58
    50.4200        26
    50.6400        34
    50.8600        54
    51.0800        34
    51.3000        40
    51.5200        34
    51.7400        38
    51.9600        30
    52.1800        56
    52.4000        90
    52.6200        68
    52.8400        70
    53.0600        74
    53.2800        80
    53.5000        66
    53.7200        58
    53.9400        52
    54.1600        52
    54.3800        46
    54.6000        64
    54.8200        60
    55.0400        80
    55.2600        72
    55.4800        48
    55.7000        48
    55.9200        44
    56.1400        52
    56.3600        46
    56.5800        58
    56.8000        56
    57.0200        58
    57.2400        52
    57.4600        48
    57.6800        40
    57.9000        70
    58.1200        74
    58.3400        84
    58.5600       150
    58.7800       196
    59.0000       126
    59.2200        94
    59.4400        66
    59.6600       132
    59.8800       302
    60.1000       256
    60.3200       116
    60.5400        82
    60.7600        68
    60.9800        76
    61.2000        74
    61.4200       130
    61.6400       108
    61.8600        62
    62.0800        46
    62.3000        40
    62.5200        50
    62.7400        46
    62.9600        54
    63.1800        62
    63.4000        56
    63.6200        56
    63.8400        44
    64.0600        44
    64.2800        44
    64.5000        34
    64.7200        54
    64.9400        56
    65.0000        40

File: Olivine-60u-Hoefen.txt
/////////////////////////////////////////////////////////////////////////////////
/// Profile Data Ascii Dump (XRD)                                             ///
/////////////////////////////////////////////////////////////////////////////////

  Group     : Swayze
  Data      : GSB
  File Name : GSB.RAW

# Profile Datafile
          comment             = Olivine-60u-Hoefen
          date & time         = 08-04-28 06:47:29

# Measurement Condition
    X-ray tube
          target              = Cu
          voltage             = 40.0 (kV)
          current             = 30.0 (mA)
    Slits
          divergence slit     = 2.00000 (deg)
          scatter slit        = 2.00000 (deg)
          receiving slit      = 0.15000 (mm)
    Scanning
          drive axis          = Theta-2Theta
          scan range          =    4.000 -   65.000
          scan mode           = Continuous Scan
          scan speed          =   2.0000 (deg/min)
          sampling pitch      =   0.0200 (deg)
          preset time         =   0.60 (sec)

# Data      [ Total No. = 3051 ]
  <2Theta>   <   I   >
     4.0000       176
     4.2200       186
     4.4400       164
     4.6600       154
     4.8800       138
     5.1000       162
     5.3200       164
     5.5400       154
     5.7600       166
     5.9800       164
     6.2000       180
     6.4200       170
     6.6400       122
     6.8600       110
     7.0800       102
     7.3000       134
     7.5200       106
     7.7400       126
     7.9600       110
     8.1800       110
     8.4000       112
     8.6200       130
     8.8400       134
     9.0600       114
     9.2800       122
     9.5000       106
     9.7200       128
     9.9400        90
    10.1600        88
    10.3800       104
    10.6000       104
    10.8200        92
    11.0400        90
    11.2600       104
    11.4800        84
    11.7000        76
    11.9200        84
    12.1400        78
    12.3600        76
    12.5800        76
    12.8000        72
    13.0200        76
    13.2400        74
    13.4600        72
    13.6800        74
    13.9000        72
    14.1200        84
    14.3400        86
    14.5600        74
    14.7800        72
    15.0000        64
    15.2200        66
    15.4400        68
    15.6600        66
    15.8800        84
    16.1000        58
    16.3200        56
    16.5400        72
    16.7600        64
    16.9800       112
    17.2000       306
    17.4200        78
    17.6400        48
    17.8600        54
    18.0800        52
    18.3000        56
    18.5200        60
    18.7400        44
    18.9600        60
    19.1800        48
    19.4000        50
    19.6200        56
    19.8400        56
    20.0600        54
    20.2800        64
    20.5000        62
    20.7200        50
    20.9400        48
    21.1600        50
    21.3800        56
    21.6000        54
    21.8200        56
    22.0400        54
    22.2600        54
    22.4800        98
    22.7000       538
    22.9200        92
    23.1400        64
    23.3600        62
    23.5800        84
    23.8000       174
    24.0200        50
    24.2400        46
    24.4600        52
    24.6800        36
    24.9000        44
    25.1200        74
    25.3400       276
    25.5600       102
    25.7800        46
    26.0000        38
    26.2200        40
    26.4400        34
    26.6600        48
    26.8800        42
    27.1000        32
    27.3200        40
    27.5400        48
    27.7600        30
    27.9800        44
    28.2000        30
    28.4200        34
    28.6400        56
    28.8600        52
    29.0800        56
    29.3000        60
    29.5200       130
    29.7400       188
    29.9600        54
    30.1800        40
    30.4000        40
    30.6200        48
    30.8400        36
    31.0600        40
    31.2800        36
    31.5000        40
    31.7200        50
    31.9400       120
    32.1600       974
    32.3800       114
    32.6000        50
    32.8200        44
    33.0400        36
    33.2600        46
    33.4800        36
    33.7000        40
    33.9200        46
    34.1400        48
    34.3600        46
    34.5800        62
    34.8000        44
    35.0200        66
    35.2400        94
    35.4600       476
    35.6800       544
    35.9000        82
    36.1200       122
    36.3400       804
    36.5600       170
    36.7800        48
    37.0000        64
    37.2200        30
    37.4400        32
    37.6600        38
    37.8800        54
    38.1000       238
    38.3200        62
    38.5400        48
    38.7600        86
    38.9800        58
    39.2000        52
    39.4200       188
    39.6400       336
    39.8600       372
    40.0800       102
    40.3000        30
    40.5200        30
    40.7400        36
    40.9600        42
    41.1800        28
    41.4000        50
    41.6200       140
    41.8400        54
    42.0600        32
    42.2800        38
    42.5000        28
    42.7200        34
    42.9400        30
    43.1600        42
    43.3800        42
    43.6000        24
    43.8200        34
    44.0400        32
    44.2600        52
    44.4800        68
    44.7000        34
    44.9200        38
    45.1400        22
    45.3600        24
    45.5800        34
    45.8000        18
    46.0200        26
    46.2400        34
    46.4600        46
    46.6800        52
    46.9000        36
    47.1200        50
    47.3400        26
    47.5600        28
    47.7800        34
    48.0000        30
    48.2200        74
    48.4400        64
    48.6600        40
    48.8800        44
    49.1000        28
    49.3200        32
    49.5400        30
    49.7600        44
    49.9800        42
    50.2000        84
    50.4200        46
    50.6400        50
    50.8600        64
    51.0800        34
    51.3000        34
    51.5200        34
    51.7400        56
    51.9600       178
    52.1800       388
    52.4000       258
    52.6200        88
    52.8400        56
    53.0600        36
    53.2800        34
    53.5000        32
    53.7200        28
    53.9400        32
    54.1600        34
    54.3800        28
    54.6000        70
    54.8200       108
    55.0400        46
    55.2600        42
    55.4800        38
    55.7000        46
    55.9200       202
    56.1400       100
    56.3600        58
    56.5800       170
    56.8000       190
    57.0200        44
    57.2400        68
    57.4600        42
    57.6800        72
    57.9000        60
    58.1200        38
    58.3400        54
    58.5600        82
    58.7800        62
    59.0000        46
    59.2200        32
    59.4400        46
    59.6600        32
    59.8800        20
    60.1000        40
    60.3200        44
    60.5400        30
    60.7600        42
    60.9800        64
    61.2000        62
    61.4200       122
    61.6400       136
    61.8600       198
    62.0800        68
    62.3000        82
    62.5200       624
    62.7400       266
    62.9600        48
    63.1800        32
    63.4000        38
    63.6200        32
    63.8400        34
    64.0600        46
    64.2800        30
    64.5000        44
    64.7200        44
    64.9400        48
    65.0000        30