Folder: spectroscopy-tetracorder/sl1/usgs/library06/DESCRIPT/new_xrd_results_to_be_added/Rhonda_Driscoll_xrd_runs (part 13)

File: GDS819---Palygorskite.txt
/////////////////////////////////////////////////////////////////////////////////
/// Profile Data Ascii Dump (XRD)                                             ///
/////////////////////////////////////////////////////////////////////////////////

  Group     : Swayze
  Data      : GDS819
  File Name : GDS819.RAW

# Profile Datafile
          comment             = Palygorskite
          date & time         = 08-04-01 05:46:03

# Measurement Condition
    X-ray tube
          target              = Cu
          voltage             = 40.0 (kV)
          current             = 30.0 (mA)
    Slits
          divergence slit     = 2.00000 (deg)
          scatter slit        = 2.00000 (deg)
          receiving slit      = 0.15000 (mm)
    Scanning
          drive axis          = Theta-2Theta
          scan range          =    4.000 -   65.000
          scan mode           = Continuous Scan
          scan speed          =   2.0000 (deg/min)
          sampling pitch      =   0.0200 (deg)
          preset time         =   0.60 (sec)

# Data      [ Total No. = 3051 ]
  <2Theta>   <   I   >
     4.0000       290
     4.2200       278
     4.4400       234
     4.6600       226
     4.8800       232
     5.1000       216
     5.3200       242
     5.5400       238
     5.7600       256
     5.9800       264
     6.2000       246
     6.4200       238
     6.6400       254
     6.8600       248
     7.0800       228
     7.3000       232
     7.5200       260
     7.7400       294
     7.9600       408
     8.1800       728
     8.4000      1010
     8.6200       514
     8.8400       174
     9.0600       152
     9.2800       128
     9.5000       130
     9.7200       120
     9.9400       138
    10.1600       114
    10.3800       100
    10.6000        84
    10.8200        98
    11.0400       114
    11.2600        80
    11.4800        92
    11.7000        86
    11.9200        90
    12.1400        80
    12.3600        74
    12.5800       102
    12.8000        78
    13.0200       100
    13.2400        92
    13.4600       104
    13.6800       150
    13.9000       154
    14.1200        86
    14.3400        92
    14.5600        56
    14.7800        74
    15.0000        60
    15.2200        74
    15.4400        72
    15.6600        66
    15.8800        66
    16.1000        84
    16.3200       146
    16.5400        96
    16.7600        70
    16.9800        60
    17.2000        76
    17.4200        90
    17.6400        54
    17.8600        60
    18.0800        66
    18.3000        54
    18.5200        64
    18.7400        62
    18.9600        70
    19.1800        70
    19.4000        72
    19.6200       132
    19.8400       244
    20.0600       136
    20.2800        96
    20.5000       108
    20.7200       202
    20.9400       148
    21.1600        72
    21.3800        82
    21.6000        60
    21.8200        58
    22.0400        58
    22.2600        54
    22.4800        48
    22.7000        48
    22.9200        62
    23.1400        50
    23.3600        72
    23.5800        98
    23.8000       100
    24.0200       158
    24.2400       136
    24.4600        84
    24.6800        68
    24.9000        66
    25.1200        64
    25.3400        72
    25.5600        60
    25.7800        78
    26.0000        62
    26.2200        94
    26.4400        96
    26.6600        90
    26.8800       104
    27.1000        98
    27.3200       112
    27.5400       134
    27.7600       126
    27.9800       146
    28.2000       128
    28.4200       106
    28.6400       134
    28.8600       112
    29.0800        60
    29.3000        50
    29.5200        56
    29.7400        48
    29.9600        58
    30.1800        54
    30.4000        58
    30.6200        60
    30.8400        54
    31.0600        48
    31.2800        44
    31.5000        38
    31.7200        38
    31.9400        40
    32.1600        44
    32.3800        34
    32.6000        54
    32.8200        56
    33.0400        60
    33.2600        90
    33.4800        96
    33.7000        70
    33.9200        74
    34.1400        90
    34.3600        92
    34.5800       100
    34.8000       108
    35.0200       118
    35.2400       222
    35.4600       168
    35.6800        82
    35.9000        52
    36.1200        52
    36.3400        36
    36.5600        68
    36.7800        62
    37.0000        88
    37.2200        86
    37.4400        68
    37.6600        72
    37.8800        44
    38.1000        38
    38.3200        48
    38.5400        34
    38.7600        36
    38.9800        28
    39.2000        20
    39.4200        50
    39.6400        52
    39.8600        46
    40.0800        54
    40.3000        74
    40.5200        56
    40.7400        62
    40.9600        50
    41.1800        54
    41.4000        44
    41.6200        60
    41.8400        64
    42.0600        68
    42.2800        36
    42.5000        44
    42.7200        44
    42.9400        44
    43.1600        34
    43.3800        38
    43.6000        30
    43.8200        38
    44.0400        36
    44.2600        48
    44.4800        52
    44.7000        60
    44.9200        54
    45.1400        56
    45.3600        34
    45.5800        32
    45.8000        26
    46.0200        28
    46.2400        46
    46.4600        42
    46.6800        26
    46.9000        36
    47.1200        24
    47.3400        30
    47.5600        42
    47.7800        40
    48.0000        44
    48.2200        38
    48.4400        28
    48.6600        44
    48.8800        38
    49.1000        32
    49.3200        30
    49.5400        30
    49.7600        46
    49.9800        30
    50.2000        36
    50.4200        36
    50.6400        28
    50.8600        34
    51.0800        36
    51.3000        28
    51.5200        32
    51.7400        38
    51.9600        28
    52.1800        42
    52.4000        42
    52.6200        40
    52.8400        38
    53.0600        26
    53.2800        34
    53.5000        42
    53.7200        50
    53.9400        22
    54.1600        30
    54.3800        42
    54.6000        38
    54.8200        48
    55.0400        38
    55.2600        40
    55.4800        42
    55.7000        44
    55.9200        40
    56.1400        32
    56.3600        38
    56.5800        30
    56.8000        34
    57.0200        36
    57.2400        42
    57.4600        36
    57.6800        44
    57.9000        30
    58.1200        34
    58.3400        38
    58.5600        50
    58.7800        56
    59.0000        46
    59.2200        64
    59.4400        48
    59.6600        48
    59.8800        34
    60.1000        42
    60.3200        30
    60.5400        36
    60.7600        36
    60.9800        24
    61.2000        46
    61.4200        42
    61.6400        52
    61.8600        50
    62.0800        36
    62.3000        62
    62.5200        46
    62.7400        42
    62.9600        30
    63.1800        42
    63.4000        36
    63.6200        26
    63.8400        40
    64.0600        24
    64.2800        36
    64.5000        30
    64.7200        24
    64.9400        44
    65.0000        38

File: GDS820---Halloysite.txt
/////////////////////////////////////////////////////////////////////////////////
/// Profile Data Ascii Dump (XRD)                                             ///
/////////////////////////////////////////////////////////////////////////////////

  Group     : Swayze
  Data      : GDS820
  File Name : GDS820.RAW

# Profile Datafile
          comment             = Halloysite
          date & time         = 08-04-01 07:49:53

# Measurement Condition
    X-ray tube
          target              = Cu
          voltage             = 40.0 (kV)
          current             = 30.0 (mA)
    Slits
          divergence slit     = 2.00000 (deg)
          scatter slit        = 2.00000 (deg)
          receiving slit      = 0.15000 (mm)
    Scanning
          drive axis          = Theta-2Theta
          scan range          =    4.000 -   65.000
          scan mode           = Continuous Scan
          scan speed          =   2.0000 (deg/min)
          sampling pitch      =   0.0200 (deg)
          preset time         =   0.60 (sec)

# Data      [ Total No. = 3051 ]
  <2Theta>   <   I   >
     4.0000       174
     4.2200       174
     4.4400       158
     4.6600       142
     4.8800       158
     5.1000       190
     5.3200       146
     5.5400       156
     5.7600       136
     5.9800       148
     6.2000       160
     6.4200       132
     6.6400       122
     6.8600       118
     7.0800       150
     7.3000       120
     7.5200       128
     7.7400       120
     7.9600       106
     8.1800       108
     8.4000       102
     8.6200       108
     8.8400       118
     9.0600       122
     9.2800       110
     9.5000       122
     9.7200       126
     9.9400       102
    10.1600       110
    10.3800       112
    10.6000       122
    10.8200       100
    11.0400       114
    11.2600       110
    11.4800       110
    11.7000       148
    11.9200       192
    12.1400       212
    12.3600       212
    12.5800       140
    12.8000       104
    13.0200        94
    13.2400        94
    13.4600        72
    13.6800        64
    13.9000        56
    14.1200        66
    14.3400        60
    14.5600        52
    14.7800        52
    15.0000        50
    15.2200        60
    15.4400        58
    15.6600        48
    15.8800        50
    16.1000        52
    16.3200        68
    16.5400        54
    16.7600        60
    16.9800        46
    17.2000        44
    17.4200        64
    17.6400        50
    17.8600        56
    18.0800        56
    18.3000        52
    18.5200        48
    18.7400        56
    18.9600        64
    19.1800        74
    19.4000        64
    19.6200       128
    19.8400       338
    20.0600       304
    20.2800       278
    20.5000       276
    20.7200       230
    20.9400       240
    21.1600       216
    21.3800       220
    21.6000       194
    21.8200       162
    22.0400       170
    22.2600       150
    22.4800       134
    22.7000       144
    22.9200       138
    23.1400       152
    23.3600       128
    23.5800       150
    23.8000       136
    24.0200       130
    24.2400       146
    24.4600       248
    24.6800       222
    24.9000       194
    25.1200       162
    25.3400       118
    25.5600       140
    25.7800       100
    26.0000        90
    26.2200        92
    26.4400       164
    26.6600        86
    26.8800        78
    27.1000        72
    27.3200        76
    27.5400        86
    27.7600       152
    27.9800       196
    28.2000        78
    28.4200        84
    28.6400        84
    28.8600        62
    29.0800        50
    29.3000        64
    29.5200        58
    29.7400        60
    29.9600        68
    30.1800        54
    30.4000        78
    30.6200        56
    30.8400        72
    31.0600        40
    31.2800        48
    31.5000        64
    31.7200        58
    31.9400        56
    32.1600        46
    32.3800        54
    32.6000        50
    32.8200        50
    33.0400        38
    33.2600        54
    33.4800        46
    33.7000        50
    33.9200        46
    34.1400        38
    34.3600        50
    34.5800        84
    34.8000       160
    35.0200       258
    35.2400       192
    35.4600       196
    35.6800       216
    35.9000       218
    36.1200       154
    36.3400        92
    36.5600        84
    36.7800        98
    37.0000        66
    37.2200        96
    37.4400        66
    37.6600       112
    37.8800       114
    38.1000       176
    38.3200       236
    38.5400       212
    38.7600       174
    38.9800       154
    39.2000       154
    39.4200       116
    39.6400        90
    39.8600        72
    40.0800        78
    40.3000        72
    40.5200        68
    40.7400        94
    40.9600        62
    41.1800        74
    41.4000        44
    41.6200        46
    41.8400        54
    42.0600        60
    42.2800        62
    42.5000        46
    42.7200        46
    42.9400        46
    43.1600        62
    43.3800        40
    43.6000        58
    43.8200        44
    44.0400        62
    44.2600        52
    44.4800        48
    44.7000        68
    44.9200        58
    45.1400        78
    45.3600        66
    45.5800        76
    45.8000        76
    46.0200        64
    46.2400        66
    46.4600        56
    46.6800        60
    46.9000        68
    47.1200        64
    47.3400        48
    47.5600        72
    47.7800        66
    48.0000        54
    48.2200        52
    48.4400        42
    48.6600        54
    48.8800        64
    49.1000        50
    49.3200        70
    49.5400        58
    49.7600        70
    49.9800        54
    50.2000        56
    50.4200        48
    50.6400        32
    50.8600        46
    51.0800        52
    51.3000        48
    51.5200        56
    51.7400        34
    51.9600        48
    52.1800        32
    52.4000        48
    52.6200        40
    52.8400        46
    53.0600        42
    53.2800        42
    53.5000        52
    53.7200        46
    53.9400        56
    54.1600        68
    54.3800        84
    54.6000        94
    54.8200        88
    55.0400        96
    55.2600       102
    55.4800        86
    55.7000        98
    55.9200        66
    56.1400        68
    56.3600        74
    56.5800        84
    56.8000        82
    57.0200        64
    57.2400        50
    57.4600        48
    57.6800        58
    57.9000        52
    58.1200        58
    58.3400        44
    58.5600        42
    58.7800        50
    59.0000        52
    59.2200        46
    59.4400        54
    59.6600        50
    59.8800        62
    60.1000        74
    60.3200        50
    60.5400        44
    60.7600        34
    60.9800        50
    61.2000        72
    61.4200        38
    61.6400        58
    61.8600        78
    62.0800       118
    62.3000       180
    62.5200       138
    62.7400        88
    62.9600        66
    63.1800        70
    63.4000        68
    63.6200        52
    63.8400        62
    64.0600        52
    64.2800        52
    64.5000        44
    64.7200        42
    64.9400        32
    65.0000        42

File: GDS821---Stilbite.txt
/////////////////////////////////////////////////////////////////////////////////
/// Profile Data Ascii Dump (XRD)                                             ///
/////////////////////////////////////////////////////////////////////////////////

  Group     : Swayze
  Data      : GDS821
  File Name : GDS821.RAW

# Profile Datafile
          comment             = Stilbite
          date & time         = 08-04-01 06:47:56

# Measurement Condition
    X-ray tube
          target              = Cu
          voltage             = 40.0 (kV)
          current             = 30.0 (mA)
    Slits
          divergence slit     = 2.00000 (deg)
          scatter slit        = 2.00000 (deg)
          receiving slit      = 0.15000 (mm)
    Scanning
          drive axis          = Theta-2Theta
          scan range          =    4.000 -   65.000
          scan mode           = Continuous Scan
          scan speed          =   2.0000 (deg/min)
          sampling pitch      =   0.0200 (deg)
          preset time         =   0.60 (sec)

# Data      [ Total No. = 3051 ]
  <2Theta>   <   I   >
     4.0000       184
     4.2200       158
     4.4400       156
     4.6600       162
     4.8800       166
     5.1000       150
     5.3200       178
     5.5400       154
     5.7600       154
     5.9800       142
     6.2000       156
     6.4200       144
     6.6400       116
     6.8600       122
     7.0800       102
     7.3000       112
     7.5200       114
     7.7400       134
     7.9600        90
     8.1800       126
     8.4000       116
     8.6200       122
     8.8400       140
     9.0600       126
     9.2800       236
     9.5000       452
     9.7200      1442
     9.9400       274
    10.1600        88
    10.3800        88
    10.6000        80
    10.8200       104
    11.0400        88
    11.2600        88
    11.4800        94
    11.7000        70
    11.9200        70
    12.1400        90
    12.3600        74
    12.5800        76
    12.8000        76
    13.0200        80
    13.2400        68
    13.4600        76
    13.6800        58
    13.9000        98
    14.1200        64
    14.3400        62
    14.5600        64
    14.7800        56
    15.0000        52
    15.2200        52
    15.4400        56
    15.6600        46
    15.8800        62
    16.1000        72
    16.3200        82
    16.5400        96
    16.7600       136
    16.9800        76
    17.2000        56
    17.4200        50
    17.6400        56
    17.8600        46
    18.0800        60
    18.3000        54
    18.5200        66
    18.7400        72
    18.9600       264
    19.1800       244
    19.4000       114
    19.6200        92
    19.8400        84
    20.0600        58
    20.2800        54
    20.5000        84
    20.7200       180
    20.9400        90
    21.1600        80
    21.3800        68
    21.6000       196
    21.8200      1164
    22.0400       770
    22.2600       214
    22.4800        66
    22.7000        36
    22.9200        54
    23.1400        54
    23.3600        62
    23.5800        76
    23.8000       180
    24.0200       120
    24.2400        54
    24.4600        42
    24.6800        50
    24.9000        48
    25.1200        48
    25.3400        56
    25.5600       162
    25.7800        78
    26.0000        96
    26.2200       234
    26.4400       114
    26.6600        58
    26.8800        54
    27.1000        44
    27.3200        68
    27.5400        54
    27.7600       100
    27.9800       296
    28.2000        92
    28.4200        72
    28.6400       122
    28.8600       102
    29.0800        90
    29.3000       404
    29.5200       952
    29.7400       382
    29.9600       152
    30.1800        78
    30.4000        50
    30.6200        58
    30.8400        76
    31.0600       132
    31.2800        64
    31.5000        70
    31.7200        90
    31.9400        94
    32.1600       274
    32.3800       268
    32.6000        62
    32.8200        66
    33.0400        94
    33.2600        68
    33.4800        52
    33.7000        54
    33.9200        36
    34.1400        52
    34.3600       106
    34.5800        88
    34.8000       104
    35.0200       190
    35.2400        98
    35.4600        80
    35.6800        86
    35.9000        92
    36.1200       126
    36.3400        74
    36.5600        96
    36.7800        52
    37.0000        52
    37.2200        54
    37.4400        40
    37.6600        58
    37.8800        54
    38.1000        74
    38.3200       106
    38.5400        50
    38.7600        62
    38.9800       102
    39.2000        46
    39.4200        46
    39.6400        68
    39.8600        42
    40.0800        54
    40.3000        56
    40.5200       100
    40.7400       100
    40.9600        68
    41.1800        56
    41.4000        44
    41.6200        58
    41.8400        60
    42.0600        38
    42.2800        36
    42.5000       110
    42.7200        84
    42.9400        90
    43.1600        94
    43.3800        58
    43.6000        72
    43.8200       136
    44.0400        76
    44.2600       104
    44.4800       102
    44.7000       138
    44.9200        72
    45.1400        66
    45.3600        54
    45.5800        42
    45.8000        30
    46.0200        36
    46.2400        40
    46.4600        46
    46.6800        40
    46.9000        40
    47.1200        30
    47.3400        34
    47.5600        36
    47.7800        86
    48.0000       104
    48.2200        72
    48.4400        38
    48.6600        56
    48.8800        60
    49.1000        52
    49.3200        46
    49.5400        58
    49.7600        84
    49.9800       230
    50.2000       172
    50.4200       110
    50.6400        92
    50.8600        70
    51.0800        66
    51.3000       118
    51.5200        58
    51.7400        60
    51.9600        42
    52.1800        60
    52.4000        46
    52.6200        48
    52.8400        78
    53.0600       112
    53.2800        38
    53.5000        50
    53.7200        42
    53.9400        54
    54.1600        48
    54.3800        58
    54.6000        44
    54.8200        66
    55.0400        60
    55.2600        56
    55.4800        50
    55.7000        48
    55.9200        60
    56.1400        70
    56.3600        58
    56.5800        42
    56.8000        50
    57.0200        58
    57.2400        50
    57.4600        48
    57.6800        78
    57.9000       120
    58.1200       106
    58.3400        78
    58.5600        46
    58.7800        54
    59.0000        62
    59.2200        76
    59.4400       122
    59.6600       104
    59.8800        50
    60.1000        50
    60.3200        24
    60.5400        44
    60.7600        28
    60.9800        46
    61.2000        56
    61.4200        54
    61.6400        44
    61.8600        48
    62.0800        56
    62.3000        60
    62.5200        44
    62.7400        42
    62.9600        42
    63.1800        72
    63.4000        48
    63.6200        60
    63.8400        36
    64.0600        46
    64.2800        42
    64.5000        56
    64.7200        72
    64.9400        60
    65.0000        52