Folder: spectroscopy-tetracorder/sl1/usgs/library06/DESCRIPT/new_xrd_results_to_be_added/Rhonda_Driscoll_xrd_runs (part 8)

File: GDS135---Suaconite.txt
/////////////////////////////////////////////////////////////////////////////////
/// Profile Data Ascii Dump (XRD)                                             ///
/////////////////////////////////////////////////////////////////////////////////

  Group     : Swayze
  Data      : GDS135
  File Name : GDS135.RAW

# Profile Datafile
          comment             = Sauconite
          date & time         = 08-03-14 07:26:52

# Measurement Condition
    X-ray tube
          target              = Cu
          voltage             = 40.0 (kV)
          current             = 30.0 (mA)
    Slits
          divergence slit     = 2.00000 (deg)
          scatter slit        = 2.00000 (deg)
          receiving slit      = 0.15000 (mm)
    Scanning
          drive axis          = Theta-2Theta
          scan range          =    4.000 -   65.000
          scan mode           = Continuous Scan
          scan speed          =   2.0000 (deg/min)
          sampling pitch      =   0.0200 (deg)
          preset time         =   0.60 (sec)

# Data      [ Total No. = 3051 ]
  <2Theta>   <   I   >
     4.0000       232
     4.2200       256
     4.4400       274
     4.6600       292
     4.8800       346
     5.1000       414
     5.3200       586
     5.5400       722
     5.7600       970
     5.9800      1064
     6.2000      1174
     6.4200      1044
     6.6400       788
     6.8600       556
     7.0800       432
     7.3000       332
     7.5200       268
     7.7400       200
     7.9600       188
     8.1800       182
     8.4000       172
     8.6200       166
     8.8400       148
     9.0600       158
     9.2800       144
     9.5000       124
     9.7200       128
     9.9400       120
    10.1600       118
    10.3800       124
    10.6000       102
    10.8200       110
    11.0400       110
    11.2600       104
    11.4800       110
    11.7000       138
    11.9200       152
    12.1400       132
    12.3600       148
    12.5800       160
    12.8000       130
    13.0200       134
    13.2400       112
    13.4600        90
    13.6800       118
    13.9000        92
    14.1200        70
    14.3400        98
    14.5600        72
    14.7800        78
    15.0000        72
    15.2200        82
    15.4400        68
    15.6600        66
    15.8800        60
    16.1000        64
    16.3200        78
    16.5400        60
    16.7600        68
    16.9800        74
    17.2000        66
    17.4200        74
    17.6400        68
    17.8600        72
    18.0800        62
    18.3000        70
    18.5200        86
    18.7400        78
    18.9600       144
    19.1800       172
    19.4000       152
    19.6200       154
    19.8400       116
    20.0600       130
    20.2800       110
    20.5000       114
    20.7200       110
    20.9400       108
    21.1600       130
    21.3800       114
    21.6000       104
    21.8200       132
    22.0400       114
    22.2600       102
    22.4800       138
    22.7000       106
    22.9200       110
    23.1400       110
    23.3600       116
    23.5800       126
    23.8000       134
    24.0200       136
    24.2400       156
    24.4600       134
    24.6800       130
    24.9000       136
    25.1200       138
    25.3400       138
    25.5600       130
    25.7800       120
    26.0000       130
    26.2200       152
    26.4400       136
    26.6600       120
    26.8800       142
    27.1000       138
    27.3200       158
    27.5400       144
    27.7600       140
    27.9800       142
    28.2000       130
    28.4200       154
    28.6400       126
    28.8600       132
    29.0800       130
    29.3000       138
    29.5200       154
    29.7400       104
    29.9600       110
    30.1800       116
    30.4000       118
    30.6200       120
    30.8400       122
    31.0600       120
    31.2800       120
    31.5000       100
    31.7200        96
    31.9400        98
    32.1600       110
    32.3800        90
    32.6000       100
    32.8200       112
    33.0400       100
    33.2600       136
    33.4800       286
    33.7000       316
    33.9200       262
    34.1400       278
    34.3600       278
    34.5800       266
    34.8000       272
    35.0200       244
    35.2400       264
    35.4600       250
    35.6800       246
    35.9000       266
    36.1200       238
    36.3400       240
    36.5600       224
    36.7800       208
    37.0000       224
    37.2200       192
    37.4400       212
    37.6600       200
    37.8800       178
    38.1000       198
    38.3200       188
    38.5400       166
    38.7600       170
    38.9800       184
    39.2000       156
    39.4200       168
    39.6400       150
    39.8600       158
    40.0800       154
    40.3000       152
    40.5200       156
    40.7400       138
    40.9600       124
    41.1800       128
    41.4000       140
    41.6200       144
    41.8400       138
    42.0600       138
    42.2800       128
    42.5000       116
    42.7200       118
    42.9400       114
    43.1600       116
    43.3800       106
    43.6000       136
    43.8200       114
    44.0400        98
    44.2600       122
    44.4800       114
    44.7000       110
    44.9200       100
    45.1400        94
    45.3600        94
    45.5800        88
    45.8000        84
    46.0200       112
    46.2400        86
    46.4600        90
    46.6800        82
    46.9000        92
    47.1200        92
    47.3400        76
    47.5600        76
    47.7800        86
    48.0000       100
    48.2200        92
    48.4400       100
    48.6600        90
    48.8800        90
    49.1000        84
    49.3200        90
    49.5400        90
    49.7600        82
    49.9800        72
    50.2000        76
    50.4200        90
    50.6400        86
    50.8600        84
    51.0800        90
    51.3000        90
    51.5200        90
    51.7400        84
    51.9600        82
    52.1800       110
    52.4000       106
    52.6200       112
    52.8400       104
    53.0600       100
    53.2800       102
    53.5000        90
    53.7200       118
    53.9400       102
    54.1600        94
    54.3800        98
    54.6000       110
    54.8200       100
    55.0400        88
    55.2600       100
    55.4800       106
    55.7000        94
    55.9200        94
    56.1400       106
    56.3600        98
    56.5800       100
    56.8000        94
    57.0200       108
    57.2400        96
    57.4600        88
    57.6800       100
    57.9000        70
    58.1200        82
    58.3400        84
    58.5600        90
    58.7800       102
    59.0000        96
    59.2200       112
    59.4400       106
    59.6600       246
    59.8800       402
    60.1000       362
    60.3200       212
    60.5400       176
    60.7600       152
    60.9800       152
    61.2000       136
    61.4200       136
    61.6400       106
    61.8600        94
    62.0800       102
    62.3000        92
    62.5200       100
    62.7400        94
    62.9600        86
    63.1800        72
    63.4000        98
    63.6200        88
    63.8400        68
    64.0600        94
    64.2800       114
    64.5000        88
    64.7200        84
    64.9400        82
    65.0000        86

File: GDS155-Clinochlore,ferrous.txt
/////////////////////////////////////////////////////////////////////////////////
/// Profile Data Ascii Dump (XRD)                                             ///
/////////////////////////////////////////////////////////////////////////////////

  Group     : Swayze
  Data      : GDS155
  File Name : GDS155.RAW

# Profile Datafile
          comment             = Clinochlore-ferrous
          date & time         = 08-04-28 08:51:18

# Measurement Condition
    X-ray tube
          target              = Cu
          voltage             = 40.0 (kV)
          current             = 30.0 (mA)
    Slits
          divergence slit     = 2.00000 (deg)
          scatter slit        = 2.00000 (deg)
          receiving slit      = 0.15000 (mm)
    Scanning
          drive axis          = Theta-2Theta
          scan range          =    4.000 -   65.000
          scan mode           = Continuous Scan
          scan speed          =   2.0000 (deg/min)
          sampling pitch      =   0.0200 (deg)
          preset time         =   0.60 (sec)

# Data      [ Total No. = 3051 ]
  <2Theta>   <   I   >
     4.0000       174
     4.2200       162
     4.4400       146
     4.6600       146
     4.8800       152
     5.1000       172
     5.3200       156
     5.5400       150
     5.7600       190
     5.9800       288
     6.2000       668
     6.4200       174
     6.6400       128
     6.8600       110
     7.0800       128
     7.3000        86
     7.5200       118
     7.7400       120
     7.9600       114
     8.1800       142
     8.4000       116
     8.6200       102
     8.8400       118
     9.0600       106
     9.2800       122
     9.5000       124
     9.7200        98
     9.9400       102
    10.1600       108
    10.3800       102
    10.6000        86
    10.8200       108
    11.0400       114
    11.2600        94
    11.4800       106
    11.7000       108
    11.9200       142
    12.1400       358
    12.3600      1798
    12.5800       662
    12.8000        94
    13.0200        80
    13.2400        74
    13.4600        62
    13.6800        72
    13.9000        60
    14.1200        58
    14.3400        80
    14.5600        60
    14.7800        70
    15.0000        66
    15.2200        54
    15.4400        80
    15.6600        50
    15.8800        46
    16.1000        52
    16.3200        56
    16.5400        72
    16.7600        60
    16.9800        60
    17.2000        52
    17.4200        48
    17.6400        58
    17.8600        54
    18.0800        74
    18.3000       104
    18.5200       274
    18.7400      1354
    18.9600       146
    19.1800        68
    19.4000        58
    19.6200        50
    19.8400        60
    20.0600        60
    20.2800        78
    20.5000        46
    20.7200        32
    20.9400        52
    21.1600        44
    21.3800        54
    21.6000        36
    21.8200        50
    22.0400        56
    22.2600        48
    22.4800        58
    22.7000        62
    22.9200        34
    23.1400        36
    23.3600        48
    23.5800        44
    23.8000        50
    24.0200        50
    24.2400        76
    24.4600        62
    24.6800       120
    24.9000       762
    25.1200      3736
    25.3400       234
    25.5600        58
    25.7800        58
    26.0000        50
    26.2200        40
    26.4400        48
    26.6600        42
    26.8800        32
    27.1000        52
    27.3200        42
    27.5400        32
    27.7600        34
    27.9800        42
    28.2000        30
    28.4200        34
    28.6400        38
    28.8600        38
    29.0800        20
    29.3000        30
    29.5200        30
    29.7400        40
    29.9600        34
    30.1800        34
    30.4000        36
    30.6200        44
    30.8400        40
    31.0600        50
    31.2800        88
    31.5000       826
    31.7200       174
    31.9400        32
    32.1600        42
    32.3800        30
    32.6000        46
    32.8200        38
    33.0400        32
    33.2600        34
    33.4800        38
    33.7000        46
    33.9200        36
    34.1400        36
    34.3600        76
    34.5800        66
    34.8000        50
    35.0200        84
    35.2400        52
    35.4600        36
    35.6800        28
    35.9000        30
    36.1200        32
    36.3400        46
    36.5600        76
    36.7800        60
    37.0000        32
    37.2200        50
    37.4400        64
    37.6600        72
    37.8800        32
    38.1000        38
    38.3200        34
    38.5400        30
    38.7600        38
    38.9800        30
    39.2000        42
    39.4200        26
    39.6400        82
    39.8600        68
    40.0800        28
    40.3000        30
    40.5200        26
    40.7400        34
    40.9600        34
    41.1800        32
    41.4000        26
    41.6200        38
    41.8400        24
    42.0600        26
    42.2800        36
    42.5000        30
    42.7200        36
    42.9400        42
    43.1600        32
    43.3800        36
    43.6000        38
    43.8200        30
    44.0400        32
    44.2600        36
    44.4800        38
    44.7000       176
    44.9200       138
    45.1400       166
    45.3600        60
    45.5800        58
    45.8000        28
    46.0200        38
    46.2400        24
    46.4600        46
    46.6800        18
    46.9000        28
    47.1200        18
    47.3400        36
    47.5600        42
    47.7800        26
    48.0000        56
    48.2200        96
    48.4400        46
    48.6600        32
    48.8800        36
    49.1000        28
    49.3200        34
    49.5400        18
    49.7600        46
    49.9800        56
    50.2000        30
    50.4200        30
    50.6400        40
    50.8600        22
    51.0800        38
    51.3000        26
    51.5200        26
    51.7400        36
    51.9600        36
    52.1800        36
    52.4000        36
    52.6200        32
    52.8400        34
    53.0600        44
    53.2800        32
    53.5000        32
    53.7200        30
    53.9400        36
    54.1600        40
    54.3800        34
    54.6000        32
    54.8200        40
    55.0400        50
    55.2600        72
    55.4800        56
    55.7000        28
    55.9200        28
    56.1400        36
    56.3600        24
    56.5800        24
    56.8000        36
    57.0200        30
    57.2400        36
    57.4600        20
    57.6800        32
    57.9000        38
    58.1200        30
    58.3400        30
    58.5600        94
    58.7800       156
    59.0000       122
    59.2200        74
    59.4400        34
    59.6600        72
    59.8800        60
    60.1000        40
    60.3200        38
    60.5400        36
    60.7600        42
    60.9800        38
    61.2000        42
    61.4200        40
    61.6400        28
    61.8600        38
    62.0800        24
    62.3000        30
    62.5200        24
    62.7400        36
    62.9600        28
    63.1800        32
    63.4000        28
    63.6200        26
    63.8400        32
    64.0600        26
    64.2800        22
    64.5000        32
    64.7200        24
    64.9400        32
    65.0000        56

File: GDS157-Clino-or-Ripido.txt
/////////////////////////////////////////////////////////////////////////////////
/// Profile Data Ascii Dump (XRD)                                             ///
/////////////////////////////////////////////////////////////////////////////////

  Group     : Swayze
  Data      : GDS157
  File Name : GDS157.RAW

# Profile Datafile
          comment             = Clinoptilolite/Ripidolite
          date & time         = 08-04-28 07:18:27

# Measurement Condition
    X-ray tube
          target              = Cu
          voltage             = 40.0 (kV)
          current             = 30.0 (mA)
    Slits
          divergence slit     = 2.00000 (deg)
          scatter slit        = 2.00000 (deg)
          receiving slit      = 0.15000 (mm)
    Scanning
          drive axis          = Theta-2Theta
          scan range          =    4.000 -   65.000
          scan mode           = Continuous Scan
          scan speed          =   2.0000 (deg/min)
          sampling pitch      =   0.0200 (deg)
          preset time         =   0.60 (sec)

# Data      [ Total No. = 3051 ]
  <2Theta>   <   I   >
     4.0000       172
     4.2200       188
     4.4400       198
     4.6600       158
     4.8800       194
     5.1000       140
     5.3200       168
     5.5400       174
     5.7600       186
     5.9800       266
     6.2000       406
     6.4200       152
     6.6400       136
     6.8600       130
     7.0800       122
     7.3000       114
     7.5200       116
     7.7400       130
     7.9600       126
     8.1800        90
     8.4000       130
     8.6200       122
     8.8400       104
     9.0600       116
     9.2800       112
     9.5000       116
     9.7200        96
     9.9400       114
    10.1600       106
    10.3800        98
    10.6000       120
    10.8200       100
    11.0400        84
    11.2600        86
    11.4800        98
    11.7000       102
    11.9200       178
    12.1400       334
    12.3600      1744
    12.5800       184
    12.8000        80
    13.0200        64
    13.2400        66
    13.4600        70
    13.6800        76
    13.9000        72
    14.1200        72
    14.3400        64
    14.5600        72
    14.7800        58
    15.0000        60
    15.2200        72
    15.4400        54
    15.6600        52
    15.8800        54
    16.1000        58
    16.3200        64
    16.5400        62
    16.7600        70
    16.9800        60
    17.2000        60
    17.4200        48
    17.6400        56
    17.8600        58
    18.0800        72
    18.3000        76
    18.5200       266
    18.7400       616
    18.9600        94
    19.1800        82
    19.4000        64
    19.6200        56
    19.8400        62
    20.0600        82
    20.2800        68
    20.5000        56
    20.7200        64
    20.9400        58
    21.1600        62
    21.3800        56
    21.6000        68
    21.8200        56
    22.0400        48
    22.2600        62
    22.4800        52
    22.7000        52
    22.9200        52
    23.1400        48
    23.3600        34
    23.5800        58
    23.8000        66
    24.0200        76
    24.2400        52
    24.4600        68
    24.6800       120
    24.9000       796
    25.1200      1280
    25.3400        86
    25.5600        42
    25.7800        56
    26.0000        54
    26.2200        44
    26.4400        52
    26.6600        58
    26.8800        50
    27.1000        40
    27.3200        38
    27.5400        58
    27.7600        32
    27.9800        42
    28.2000        60
    28.4200        52
    28.6400        32
    28.8600        58
    29.0800        38
    29.3000        42
    29.5200        34
    29.7400        48
    29.9600        58
    30.1800        46
    30.4000        48
    30.6200        46
    30.8400        34
    31.0600        50
    31.2800       126
    31.5000       480
    31.7200        62
    31.9400        46
    32.1600        34
    32.3800        52
    32.6000        54
    32.8200        40
    33.0400        40
    33.2600        48
    33.4800        56
    33.7000        32
    33.9200        38
    34.1400        48
    34.3600       180
    34.5800        74
    34.8000        84
    35.0200       156
    35.2400        62
    35.4600        44
    35.6800        36
    35.9000        32
    36.1200        44
    36.3400        82
    36.5600       170
    36.7800        52
    37.0000        22
    37.2200        64
    37.4400       138
    37.6600        96
    37.8800        46
    38.1000        42
    38.3200        44
    38.5400        38
    38.7600        40
    38.9800        30
    39.2000        48
    39.4200        68
    39.6400       144
    39.8600        62
    40.0800        44
    40.3000        38
    40.5200        44
    40.7400        42
    40.9600        28
    41.1800        30
    41.4000        30
    41.6200        38
    41.8400        26
    42.0600        26
    42.2800        34
    42.5000        40
    42.7200        44
    42.9400        38
    43.1600        32
    43.3800        36
    43.6000        60
    43.8200        28
    44.0400        28
    44.2600        32
    44.4800        58
    44.7000       184
    44.9200       222
    45.1400       220
    45.3600        72
    45.5800        50
    45.8000        26
    46.0200        30
    46.2400        40
    46.4600        40
    46.6800        34
    46.9000        30
    47.1200        28
    47.3400        38
    47.5600        36
    47.7800        54
    48.0000        98
    48.2200       104
    48.4400        58
    48.6600        36
    48.8800        34
    49.1000        34
    49.3200        22
    49.5400        58
    49.7600        66
    49.9800        60
    50.2000        34
    50.4200        44
    50.6400        42
    50.8600        26
    51.0800        36
    51.3000        26
    51.5200        30
    51.7400        32
    51.9600        34
    52.1800        44
    52.4000        36
    52.6200        32
    52.8400        34
    53.0600        44
    53.2800        60
    53.5000        40
    53.7200        32
    53.9400        42
    54.1600        32
    54.3800        52
    54.6000        32
    54.8200        42
    55.0400        64
    55.2600        70
    55.4800        46
    55.7000        38
    55.9200        28
    56.1400        32
    56.3600        34
    56.5800        32
    56.8000        26
    57.0200        34
    57.2400        38
    57.4600        32
    57.6800        40
    57.9000        44
    58.1200        34
    58.3400        52
    58.5600       100
    58.7800       230
    59.0000       160
    59.2200        52
    59.4400        48
    59.6600       164
    59.8800        88
    60.1000        40
    60.3200        40
    60.5400        46
    60.7600        50
    60.9800        50
    61.2000        84
    61.4200        44
    61.6400        38
    61.8600        24
    62.0800        38
    62.3000        26
    62.5200        42
    62.7400        32
    62.9600        30
    63.1800        36
    63.4000        40
    63.6200        34
    63.8400        32
    64.0600        38
    64.2800        32
    64.5000        34
    64.7200        32
    64.9400        30
    65.0000        36