Folder: spectroscopy-tetracorder/sl1/usgs/library06/DESCRIPT/new_xrd_results_to_be_added/Rhonda_Driscoll_xrd_runs (part 17)

File: SBS-03-1---Opal-A.txt
/////////////////////////////////////////////////////////////////////////////////
/// Profile Data Ascii Dump (XRD)                                             ///
/////////////////////////////////////////////////////////////////////////////////

  Group     : Swayze
  Data      : SBS-03-1
  File Name : SBS-03-1.RAW

# Profile Datafile
          comment             = Opal-A
          date & time         = 08-03-12 07:00:21

# Measurement Condition
    X-ray tube
          target              = Cu
          voltage             = 40.0 (kV)
          current             = 30.0 (mA)
    Slits
          divergence slit     = 2.00000 (deg)
          scatter slit        = 2.00000 (deg)
          receiving slit      = 0.15000 (mm)
    Scanning
          drive axis          = Theta-2Theta
          scan range          =    4.000 -   65.000
          scan mode           = Continuous Scan
          scan speed          =   2.0000 (deg/min)
          sampling pitch      =   0.0200 (deg)
          preset time         =   0.60 (sec)

# Data      [ Total No. = 3051 ]
  <2Theta>   <   I   >
     4.0000       226
     4.2200       210
     4.4400       182
     4.6600       170
     4.8800       174
     5.1000       182
     5.3200       196
     5.5400       192
     5.7600       188
     5.9800       192
     6.2000       158
     6.4200       158
     6.6400       166
     6.8600       162
     7.0800       126
     7.3000       148
     7.5200       142
     7.7400       160
     7.9600       150
     8.1800       144
     8.4000       152
     8.6200       176
     8.8400       146
     9.0600       152
     9.2800       126
     9.5000       156
     9.7200       146
     9.9400       126
    10.1600       146
    10.3800       136
    10.6000       128
    10.8200       106
    11.0400       128
    11.2600       120
    11.4800       116
    11.7000       102
    11.9200       110
    12.1400       106
    12.3600       118
    12.5800       106
    12.8000       102
    13.0200        94
    13.2400        90
    13.4600       104
    13.6800        98
    13.9000       108
    14.1200        90
    14.3400       106
    14.5600        96
    14.7800       102
    15.0000       118
    15.2200       108
    15.4400       124
    15.6600       114
    15.8800       118
    16.1000       120
    16.3200       108
    16.5400       146
    16.7600       130
    16.9800       114
    17.2000       134
    17.4200       168
    17.6400       130
    17.8600       176
    18.0800       178
    18.3000       182
    18.5200       170
    18.7400       188
    18.9600       202
    19.1800       202
    19.4000       216
    19.6200       224
    19.8400       270
    20.0600       240
    20.2800       268
    20.5000       298
    20.7200       364
    20.9400       296
    21.1600       296
    21.3800       320
    21.6000       304
    21.8200       336
    22.0400       290
    22.2600       270
    22.4800       270
    22.7000       302
    22.9200       298
    23.1400       284
    23.3600       294
    23.5800       278
    23.8000       258
    24.0200       264
    24.2400       254
    24.4600       250
    24.6800       264
    24.9000       240
    25.1200       248
    25.3400       234
    25.5600       288
    25.7800       228
    26.0000       190
    26.2200       194
    26.4400       284
    26.6600       256
    26.8800       182
    27.1000       170
    27.3200       196
    27.5400       200
    27.7600       256
    27.9800       324
    28.2000       180
    28.4200       148
    28.6400       158
    28.8600       144
    29.0800       126
    29.3000       106
    29.5200       122
    29.7400       122
    29.9600       144
    30.1800       142
    30.4000       136
    30.6200       116
    30.8400       122
    31.0600       124
    31.2800       114
    31.5000       122
    31.7200       128
    31.9400       126
    32.1600       118
    32.3800       104
    32.6000       112
    32.8200       114
    33.0400        86
    33.2600        98
    33.4800       120
    33.7000        80
    33.9200        94
    34.1400       104
    34.3600       104
    34.5800       110
    34.8000        96
    35.0200       100
    35.2400        80
    35.4600       104
    35.6800        96
    35.9000        98
    36.1200       112
    36.3400        96
    36.5600        84
    36.7800        90
    37.0000        88
    37.2200        94
    37.4400        90
    37.6600        94
    37.8800        96
    38.1000       106
    38.3200        82
    38.5400        76
    38.7600        82
    38.9800        80
    39.2000        88
    39.4200        92
    39.6400        82
    39.8600        78
    40.0800        96
    40.3000        80
    40.5200        84
    40.7400        60
    40.9600        72
    41.1800        90
    41.4000        90
    41.6200        88
    41.8400        80
    42.0600        74
    42.2800        82
    42.5000        76
    42.7200        82
    42.9400        84
    43.1600        62
    43.3800        72
    43.6000        76
    43.8200        90
    44.0400        90
    44.2600        70
    44.4800        84
    44.7000        68
    44.9200        66
    45.1400        82
    45.3600        78
    45.5800        86
    45.8000        92
    46.0200        84
    46.2400        64
    46.4600        76
    46.6800        78
    46.9000        68
    47.1200        86
    47.3400        68
    47.5600        62
    47.7800        66
    48.0000        76
    48.2200        66
    48.4400        70
    48.6600        56
    48.8800        76
    49.1000        64
    49.3200        68
    49.5400        70
    49.7600        64
    49.9800        88
    50.2000        88
    50.4200        64
    50.6400        66
    50.8600        62
    51.0800        74
    51.3000        64
    51.5200        62
    51.7400        74
    51.9600        78
    52.1800        68
    52.4000        70
    52.6200        56
    52.8400        74
    53.0600        80
    53.2800        68
    53.5000        78
    53.7200        82
    53.9400        80
    54.1600        66
    54.3800        58
    54.6000        78
    54.8200        92
    55.0400        66
    55.2600        76
    55.4800        70
    55.7000        72
    55.9200        70
    56.1400        82
    56.3600        74
    56.5800        82
    56.8000        76
    57.0200        90
    57.2400        68
    57.4600        76
    57.6800        68
    57.9000        68
    58.1200        74
    58.3400        60
    58.5600        64
    58.7800        64
    59.0000        84
    59.2200        78
    59.4400        72
    59.6600        60
    59.8800        88
    60.1000        82
    60.3200        64
    60.5400        52
    60.7600        74
    60.9800        76
    61.2000        82
    61.4200        74
    61.6400        74
    61.8600        74
    62.0800        58
    62.3000        66
    62.5200        78
    62.7400        88
    62.9600        66
    63.1800        64
    63.4000        76
    63.6200        92
    63.8400        92
    64.0600        80
    64.2800        74
    64.5000        68
    64.7200        72
    64.9400        66
    65.0000        90

File: SCF-NHJ-4-AmmonioJaro.txt
/////////////////////////////////////////////////////////////////////////////////
/// Profile Data Ascii Dump (XRD)                                             ///
/////////////////////////////////////////////////////////////////////////////////

  Group     : Swayze
  Data      : SCF-NHJ-A
  File Name : SCF-NHJ-A.RAW

# Profile Datafile
          comment             = AmmonioJarosite
          date & time         = 08-04-09 07:51:18

# Measurement Condition
    X-ray tube
          target              = Cu
          voltage             = 40.0 (kV)
          current             = 30.0 (mA)
    Slits
          divergence slit     = 2.00000 (deg)
          scatter slit        = 2.00000 (deg)
          receiving slit      = 0.15000 (mm)
    Scanning
          drive axis          = Theta-2Theta
          scan range          =    4.000 -   65.000
          scan mode           = Continuous Scan
          scan speed          =   2.0000 (deg/min)
          sampling pitch      =   0.0200 (deg)
          preset time         =   0.60 (sec)

# Data      [ Total No. = 3051 ]
  <2Theta>   <   I   >
     4.0000       178
     4.2200       188
     4.4400       138
     4.6600       174
     4.8800       178
     5.1000       160
     5.3200       124
     5.5400       154
     5.7600       178
     5.9800       134
     6.2000       162
     6.4200       150
     6.6400       120
     6.8600       114
     7.0800       108
     7.3000       126
     7.5200       124
     7.7400       108
     7.9600       130
     8.1800       118
     8.4000       102
     8.6200       110
     8.8400       122
     9.0600       108
     9.2800       104
     9.5000       100
     9.7200       102
     9.9400       116
    10.1600        86
    10.3800       128
    10.6000        88
    10.8200        88
    11.0400       102
    11.2600        90
    11.4800        78
    11.7000        84
    11.9200        86
    12.1400        82
    12.3600        86
    12.5800        98
    12.8000        80
    13.0200        74
    13.2400        80
    13.4600        56
    13.6800        76
    13.9000        68
    14.1200        82
    14.3400        82
    14.5600        82
    14.7800       178
    15.0000       164
    15.2200       196
    15.4400        56
    15.6600        60
    15.8800        62
    16.1000        54
    16.3200        58
    16.5400        54
    16.7600        86
    16.9800       188
    17.2000       872
    17.4200       100
    17.6400        68
    17.8600        70
    18.0800        54
    18.3000        44
    18.5200        54
    18.7400        50
    18.9600        38
    19.1800        54
    19.4000        56
    19.6200        52
    19.8400        44
    20.0600        42
    20.2800        58
    20.5000        54
    20.7200        56
    20.9400        48
    21.1600        46
    21.3800        50
    21.6000        46
    21.8200        50
    22.0400        44
    22.2600        40
    22.4800        36
    22.7000        42
    22.9200        42
    23.1400        44
    23.3600        44
    23.5800        50
    23.8000        40
    24.0200        52
    24.2400       134
    24.4600        54
    24.6800       112
    24.9000        40
    25.1200        38
    25.3400        36
    25.5600        50
    25.7800        60
    26.0000        40
    26.2200        50
    26.4400        46
    26.6600        26
    26.8800        56
    27.1000        38
    27.3200        42
    27.5400        68
    27.7600        46
    27.9800        68
    28.2000        96
    28.4200       490
    28.6400      1160
    28.8600       340
    29.0800       126
    29.3000        52
    29.5200        50
    29.7400        74
    29.9600        76
    30.1800        42
    30.4000       110
    30.6200       150
    30.8400        28
    31.0600        50
    31.2800        36
    31.5000        42
    31.7200        56
    31.9400        40
    32.1600        38
    32.3800        36
    32.6000        32
    32.8200        30
    33.0400        34
    33.2600        44
    33.4800        28
    33.7000        34
    33.9200        34
    34.1400        32
    34.3600        40
    34.5800        44
    34.8000       168
    35.0200        90
    35.2400        44
    35.4600        38
    35.6800        28
    35.9000        18
    36.1200        30
    36.3400        38
    36.5600        40
    36.7800        40
    37.0000        48
    37.2200        34
    37.4400        36
    37.6600        36
    37.8800        40
    38.1000        54
    38.3200        62
    38.5400       302
    38.7600       184
    38.9800        46
    39.2000        28
    39.4200        52
    39.6400        38
    39.8600        32
    40.0800        24
    40.3000        36
    40.5200        28
    40.7400        28
    40.9600        34
    41.1800        24
    41.4000        38
    41.6200        36
    41.8400        20
    42.0600        28
    42.2800        34
    42.5000        44
    42.7200        38
    42.9400        40
    43.1600        20
    43.3800        22
    43.6000        32
    43.8200        30
    44.0400        26
    44.2600        34
    44.4800        28
    44.7000        28
    44.9200        32
    45.1400        46
    45.3600       124
    45.5800       352
    45.8000        68
    46.0200        98
    46.2400       110
    46.4600        82
    46.6800        94
    46.9000        40
    47.1200        32
    47.3400        36
    47.5600        36
    47.7800        24
    48.0000        20
    48.2200        36
    48.4400        36
    48.6600        34
    48.8800        38
    49.1000        38
    49.3200        36
    49.5400        78
    49.7600       284
    49.9800        54
    50.2000        36
    50.4200        48
    50.6400        60
    50.8600        50
    51.0800        30
    51.3000        34
    51.5200        24
    51.7400        26
    51.9600        32
    52.1800        70
    52.4000        90
    52.6200        36
    52.8400        54
    53.0600       100
    53.2800        46
    53.5000        22
    53.7200        28
    53.9400        30
    54.1600        28
    54.3800        36
    54.6000        22
    54.8200        30
    55.0400        36
    55.2600        40
    55.4800        30
    55.7000        24
    55.9200        38
    56.1400        46
    56.3600        78
    56.5800        44
    56.8000        72
    57.0200        78
    57.2400        36
    57.4600        32
    57.6800        44
    57.9000        38
    58.1200        46
    58.3400        98
    58.5600        72
    58.7800        50
    59.0000        64
    59.2200        96
    59.4400       150
    59.6600       102
    59.8800        50
    60.1000       124
    60.3200       168
    60.5400        76
    60.7600        34
    60.9800        40
    61.2000        30
    61.4200        32
    61.6400        34
    61.8600        38
    62.0800        72
    62.3000        58
    62.5200        26
    62.7400        26
    62.9600        32
    63.1800        36
    63.4000        40
    63.6200        32
    63.8400        18
    64.0600        46
    64.2800        70
    64.5000        66
    64.7200        86
    64.9400        82
    65.0000        70

File: SCF-NHJ-B-AmmonioJarosite.txt
/////////////////////////////////////////////////////////////////////////////////
/// Profile Data Ascii Dump (XRD)                                             ///
/////////////////////////////////////////////////////////////////////////////////

  Group     : Swayze
  Data      : SCF-NHJ-B
  File Name : SCF-NHJ-B.RAW

# Profile Datafile
          comment             = AmmonioJarosite
          date & time         = 08-04-14 06:49:38

# Measurement Condition
    X-ray tube
          target              = Cu
          voltage             = 40.0 (kV)
          current             = 30.0 (mA)
    Slits
          divergence slit     = 2.00000 (deg)
          scatter slit        = 2.00000 (deg)
          receiving slit      = 0.15000 (mm)
    Scanning
          drive axis          = Theta-2Theta
          scan range          =    4.000 -   65.000
          scan mode           = Continuous Scan
          scan speed          =   2.0000 (deg/min)
          sampling pitch      =   0.0200 (deg)
          preset time         =   0.60 (sec)

# Data      [ Total No. = 3051 ]
  <2Theta>   <   I   >
     4.0000       200
     4.2200       194
     4.4400       146
     4.6600       184
     4.8800       178
     5.1000       198
     5.3200       188
     5.5400       176
     5.7600       176
     5.9800       170
     6.2000       140
     6.4200       134
     6.6400       146
     6.8600       136
     7.0800       134
     7.3000       146
     7.5200       130
     7.7400       132
     7.9600       106
     8.1800       116
     8.4000       132
     8.6200       128
     8.8400       128
     9.0600       122
     9.2800       122
     9.5000       110
     9.7200        98
     9.9400       128
    10.1600       110
    10.3800       124
    10.6000       106
    10.8200       112
    11.0400        98
    11.2600        86
    11.4800        82
    11.7000        92
    11.9200        96
    12.1400       106
    12.3600        88
    12.5800        86
    12.8000        72
    13.0200        82
    13.2400        86
    13.4600        92
    13.6800        70
    13.9000        52
    14.1200        72
    14.3400        64
    14.5600       100
    14.7800       210
    15.0000       224
    15.2200        84
    15.4400        62
    15.6600        72
    15.8800        52
    16.1000        60
    16.3200        70
    16.5400        74
    16.7600       100
    16.9800       262
    17.2000       686
    17.4200        94
    17.6400        84
    17.8600        62
    18.0800        60
    18.3000        66
    18.5200        64
    18.7400        48
    18.9600        54
    19.1800        54
    19.4000        64
    19.6200        72
    19.8400        56
    20.0600        50
    20.2800        64
    20.5000        50
    20.7200        52
    20.9400        54
    21.1600        56
    21.3800        56
    21.6000        70
    21.8200        44
    22.0400        40
    22.2600        60
    22.4800        40
    22.7000        52
    22.9200        38
    23.1400        52
    23.3600        52
    23.5800        50
    23.8000        54
    24.0200        70
    24.2400        82
    24.4600        78
    24.6800       100
    24.9000        46
    25.1200        44
    25.3400        48
    25.5600        56
    25.7800        54
    26.0000        44
    26.2200        48
    26.4400        42
    26.6600        34
    26.8800        44
    27.1000        60
    27.3200        56
    27.5400        36
    27.7600        56
    27.9800        52
    28.2000       130
    28.4200      1000
    28.6400      1304
    28.8600       114
    29.0800        78
    29.3000        46
    29.5200        40
    29.7400        84
    29.9600        74
    30.1800        42
    30.4000       152
    30.6200       100
    30.8400        54
    31.0600        34
    31.2800        42
    31.5000        48
    31.7200        42
    31.9400        36
    32.1600        42
    32.3800        24
    32.6000        40
    32.8200        30
    33.0400        38
    33.2600        48
    33.4800        34
    33.7000        42
    33.9200        30
    34.1400        34
    34.3600        42
    34.5800        58
    34.8000       220
    35.0200        56
    35.2400        48
    35.4600        38
    35.6800        32
    35.9000        32
    36.1200        32
    36.3400        34
    36.5600        36
    36.7800        28
    37.0000        44
    37.2200        36
    37.4400        36
    37.6600        42
    37.8800        46
    38.1000        58
    38.3200        80
    38.5400       356
    38.7600       108
    38.9800        44
    39.2000        44
    39.4200        46
    39.6400        34
    39.8600        26
    40.0800        46
    40.3000        32
    40.5200        32
    40.7400        40
    40.9600        30
    41.1800        28
    41.4000        42
    41.6200        32
    41.8400        34
    42.0600        34
    42.2800        28
    42.5000        42
    42.7200        46
    42.9400        36
    43.1600        32
    43.3800        26
    43.6000        40
    43.8200        32
    44.0400        32
    44.2600        34
    44.4800        26
    44.7000        44
    44.9200        46
    45.1400        44
    45.3600       174
    45.5800       238
    45.8000        54
    46.0200       106
    46.2400        70
    46.4600       122
    46.6800        80
    46.9000        40
    47.1200        28
    47.3400        28
    47.5600        36
    47.7800        28
    48.0000        36
    48.2200        46
    48.4400        28
    48.6600        34
    48.8800        40
    49.1000        36
    49.3200        40
    49.5400       226
    49.7600       192
    49.9800        42
    50.2000        46
    50.4200        82
    50.6400        68
    50.8600        24
    51.0800        30
    51.3000        26
    51.5200        44
    51.7400        36
    51.9600        38
    52.1800       104
    52.4000        60
    52.6200        38
    52.8400        82
    53.0600        84
    53.2800        50
    53.5000        34
    53.7200        34
    53.9400        38
    54.1600        36
    54.3800        30
    54.6000        42
    54.8200        38
    55.0400        38
    55.2600        42
    55.4800        40
    55.7000        34
    55.9200        44
    56.1400        66
    56.3600        58
    56.5800        46
    56.8000        92
    57.0200        44
    57.2400        42
    57.4600        36
    57.6800        46
    57.9000        32
    58.1200        44
    58.3400        72
    58.5600        76
    58.7800        46
    59.0000        90
    59.2200        90
    59.4400       160
    59.6600        80
    59.8800        70
    60.1000       128
    60.3200       168
    60.5400        62
    60.7600        44
    60.9800        36
    61.2000        36
    61.4200        26
    61.6400        38
    61.8600        36
    62.0800        92
    62.3000        48
    62.5200        34
    62.7400        46
    62.9600        34
    63.1800        20
    63.4000        32
    63.6200        26
    63.8400        36
    64.0600        38
    64.2800        70
    64.5000        64
    64.7200        82
    64.9400        90
    65.0000        66