Folder: spectroscopy-tetracorder/sl1/usgs/library06/DESCRIPT/new_xrd_results_to_be_added/Rhonda_Driscoll_xrd_runs (part 21)

File: WS661-Annite-ferrous-biotite.txt
/////////////////////////////////////////////////////////////////////////////////
/// Profile Data Ascii Dump (XRD)                                             ///
/////////////////////////////////////////////////////////////////////////////////

  Group     : Swayze
  Data      : WS661
  File Name : WS661.RAW

# Profile Datafile
          comment             = Annite-ferrous biotite
          date & time         = 08-04-08 08:59:07

# Measurement Condition
    X-ray tube
          target              = Cu
          voltage             = 40.0 (kV)
          current             = 30.0 (mA)
    Slits
          divergence slit     = 2.00000 (deg)
          scatter slit        = 2.00000 (deg)
          receiving slit      = 0.15000 (mm)
    Scanning
          drive axis          = Theta-2Theta
          scan range          =    4.000 -   65.000
          scan mode           = Continuous Scan
          scan speed          =   2.0000 (deg/min)
          sampling pitch      =   0.0200 (deg)
          preset time         =   0.60 (sec)

# Data      [ Total No. = 3051 ]
  <2Theta>   <   I   >
     4.0000       178
     4.2200       174
     4.4400       186
     4.6600       146
     4.8800       160
     5.1000       170
     5.3200       170
     5.5400       150
     5.7600       146
     5.9800       164
     6.2000       136
     6.4200       148
     6.6400       142
     6.8600       122
     7.0800       120
     7.3000       120
     7.5200       126
     7.7400       152
     7.9600       190
     8.1800       262
     8.4000       732
     8.6200      3492
     8.8400      2312
     9.0600       238
     9.2800       138
     9.5000       138
     9.7200       112
     9.9400       118
    10.1600        98
    10.3800        98
    10.6000       110
    10.8200        98
    11.0400        94
    11.2600        94
    11.4800        90
    11.7000        72
    11.9200        60
    12.1400        76
    12.3600        66
    12.5800        78
    12.8000        80
    13.0200        76
    13.2400        82
    13.4600        56
    13.6800        70
    13.9000        60
    14.1200        76
    14.3400        78
    14.5600        68
    14.7800        66
    15.0000        50
    15.2200        76
    15.4400        60
    15.6600        52
    15.8800        64
    16.1000        62
    16.3200        38
    16.5400        54
    16.7600        68
    16.9800        66
    17.2000       108
    17.4200       294
    17.6400      1010
    17.8600        84
    18.0800        52
    18.3000        56
    18.5200        40
    18.7400        40
    18.9600        80
    19.1800        74
    19.4000        40
    19.6200        54
    19.8400        50
    20.0600        62
    20.2800        64
    20.5000        46
    20.7200        52
    20.9400        58
    21.1600        62
    21.3800        62
    21.6000        44
    21.8200        48
    22.0400        46
    22.2600        54
    22.4800        50
    22.7000        62
    22.9200        54
    23.1400        64
    23.3600        42
    23.5800        46
    23.8000        62
    24.0200        66
    24.2400        50
    24.4600        64
    24.6800        66
    24.9000        70
    25.1200        70
    25.3400       104
    25.5600       138
    25.7800       140
    26.0000       202
    26.2200       610
    26.4400      6556
    26.6600      2710
    26.8800       246
    27.1000       128
    27.3200        92
    27.5400        76
    27.7600        66
    27.9800        52
    28.2000        68
    28.4200        74
    28.6400        50
    28.8600        68
    29.0800        44
    29.3000        42
    29.5200        38
    29.7400        44
    29.9600        54
    30.1800        64
    30.4000        68
    30.6200        48
    30.8400        36
    31.0600        38
    31.2800        28
    31.5000        36
    31.7200        50
    31.9400        40
    32.1600        38
    32.3800        40
    32.6000        44
    32.8200        52
    33.0400        48
    33.2600        46
    33.4800        60
    33.7000       118
    33.9200        90
    34.1400        60
    34.3600        50
    34.5800        56
    34.8000        56
    35.0200        50
    35.2400        82
    35.4600       296
    35.6800      2406
    35.9000       126
    36.1200        76
    36.3400        90
    36.5600        80
    36.7800        64
    37.0000        50
    37.2200        38
    37.4400        42
    37.6600        34
    37.8800        40
    38.1000        32
    38.3200        40
    38.5400        26
    38.7600        36
    38.9800        36
    39.2000        40
    39.4200        40
    39.6400        36
    39.8600        50
    40.0800        40
    40.3000        42
    40.5200        30
    40.7400        26
    40.9600        48
    41.1800        62
    41.4000        48
    41.6200        28
    41.8400        36
    42.0600        32
    42.2800        32
    42.5000        32
    42.7200        36
    42.9400        34
    43.1600        32
    43.3800        30
    43.6000        30
    43.8200        32
    44.0400        42
    44.2600        40
    44.4800        40
    44.7000        82
    44.9200       366
    45.1400       450
    45.3600        70
    45.5800        50
    45.8000        34
    46.0200        26
    46.2400        26
    46.4600        38
    46.6800        30
    46.9000        38
    47.1200        44
    47.3400        40
    47.5600        30
    47.7800        34
    48.0000        26
    48.2200        20
    48.4400        38
    48.6600        38
    48.8800        38
    49.1000        42
    49.3200        32
    49.5400        26
    49.7600        34
    49.9800        26
    50.2000        26
    50.4200        34
    50.6400        38
    50.8600        40
    51.0800        22
    51.3000        32
    51.5200        24
    51.7400        30
    51.9600        30
    52.1800        30
    52.4000        40
    52.6200        32
    52.8400        36
    53.0600        40
    53.2800        34
    53.5000        24
    53.7200        48
    53.9400        60
    54.1600        60
    54.3800        90
    54.6000       258
    54.8200       466
    55.0400        68
    55.2600        50
    55.4800        36
    55.7000        36
    55.9200        46
    56.1400        38
    56.3600        32
    56.5800        26
    56.8000        30
    57.0200        30
    57.2400        40
    57.4600        32
    57.6800        30
    57.9000        30
    58.1200        34
    58.3400        26
    58.5600        28
    58.7800        24
    59.0000        40
    59.2200        60
    59.4400        68
    59.6600        68
    59.8800        66
    60.1000        60
    60.3200        34
    60.5400        40
    60.7600        52
    60.9800        34
    61.2000        38
    61.4200        32
    61.6400        40
    61.8600        34
    62.0800        26
    62.3000        38
    62.5200        54
    62.7400        34
    62.9600        28
    63.1800        28
    63.4000        34
    63.6200        36
    63.8400        34
    64.0600        48
    64.2800        38
    64.5000        50
    64.7200       160
    64.9400       328
    65.0000       382

File: WS708-Bytownite-Hoefen.txt
/////////////////////////////////////////////////////////////////////////////////
/// Profile Data Ascii Dump (XRD)                                             ///
/////////////////////////////////////////////////////////////////////////////////

  Group     : GPlumlee
  Data      : WS708
  File Name : WS708.RAW

# Profile Datafile
          comment             = Bytownite-Hoefen
          date & time         = 08-04-16 08:15:19

# Measurement Condition
    X-ray tube
          target              = Cu
          voltage             = 40.0 (kV)
          current             = 30.0 (mA)
    Slits
          divergence slit     = 2.00000 (deg)
          scatter slit        = 2.00000 (deg)
          receiving slit      = 0.15000 (mm)
    Scanning
          drive axis          = Theta-2Theta
          scan range          =    4.000 -   65.000
          scan mode           = Continuous Scan
          scan speed          =   2.0000 (deg/min)
          sampling pitch      =   0.0200 (deg)
          preset time         =   0.60 (sec)

# Data      [ Total No. = 3051 ]
  <2Theta>   <   I   >
     4.0000       190
     4.2200       170
     4.4400       154
     4.6600       160
     4.8800       140
     5.1000       148
     5.3200       168
     5.5400       150
     5.7600       164
     5.9800       144
     6.2000       138
     6.4200       120
     6.6400       120
     6.8600       142
     7.0800       124
     7.3000       108
     7.5200       100
     7.7400       116
     7.9600       118
     8.1800       108
     8.4000       110
     8.6200       122
     8.8400       118
     9.0600       116
     9.2800       122
     9.5000       110
     9.7200        94
     9.9400        86
    10.1600        84
    10.3800       100
    10.6000       102
    10.8200        96
    11.0400        96
    11.2600        90
    11.4800        82
    11.7000        74
    11.9200        74
    12.1400        96
    12.3600        94
    12.5800        68
    12.8000        90
    13.0200        72
    13.2400        74
    13.4600        92
    13.6800        72
    13.9000        68
    14.1200        74
    14.3400        60
    14.5600        56
    14.7800        66
    15.0000        58
    15.2200        70
    15.4400        62
    15.6600        60
    15.8800        52
    16.1000        58
    16.3200        48
    16.5400        48
    16.7600        60
    16.9800        64
    17.2000        60
    17.4200        54
    17.6400        64
    17.8600        58
    18.0800        50
    18.3000        46
    18.5200        56
    18.7400       124
    18.9600        50
    19.1800        42
    19.4000        44
    19.6200        52
    19.8400        54
    20.0600        48
    20.2800        60
    20.5000        42
    20.7200        46
    20.9400        60
    21.1600        44
    21.3800        64
    21.6000        70
    21.8200       408
    22.0400        88
    22.2600        60
    22.4800        72
    22.7000       152
    22.9200        52
    23.1400        82
    23.3600       160
    23.5800       496
    23.8000        46
    24.0200        70
    24.2400       170
    24.4600       244
    24.6800        54
    24.9000        52
    25.1200        64
    25.3400       104
    25.5600       148
    25.7800        68
    26.0000        64
    26.2200       120
    26.4400       162
    26.6600        66
    26.8800        58
    27.1000        96
    27.3200       362
    27.5400       626
    27.7600      1446
    27.9800      2010
    28.2000       178
    28.4200       212
    28.6400        68
    28.8600        34
    29.0800        66
    29.3000       220
    29.5200        78
    29.7400        42
    29.9600       102
    30.1800       350
    30.4000       208
    30.6200        98
    30.8400        46
    31.0600        44
    31.2800       114
    31.5000       200
    31.7200        96
    31.9400        44
    32.1600        38
    32.3800        42
    32.6000        36
    32.8200        32
    33.0400        30
    33.2600        52
    33.4800        78
    33.7000       210
    33.9200        50
    34.1400        40
    34.3600        36
    34.5800        42
    34.8000        44
    35.0200        64
    35.2400        70
    35.4600       234
    35.6800       180
    35.9000        46
    36.1200        34
    36.3400        58
    36.5600        50
    36.7800        58
    37.0000        58
    37.2200        44
    37.4400        52
    37.6600        68
    37.8800        62
    38.1000        64
    38.3200        38
    38.5400        38
    38.7600        78
    38.9800        44
    39.2000        40
    39.4200        90
    39.6400        84
    39.8600        54
    40.0800        38
    40.3000        80
    40.5200        70
    40.7400        38
    40.9600        34
    41.1800        56
    41.4000        40
    41.6200        56
    41.8400        68
    42.0600       190
    42.2800       150
    42.5000        82
    42.7200        46
    42.9400       138
    43.1600        68
    43.3800        40
    43.6000        38
    43.8200        36
    44.0400        34
    44.2600        38
    44.4800        30
    44.7000        58
    44.9200        70
    45.1400        54
    45.3600        94
    45.5800       106
    45.8000        50
    46.0200        66
    46.2400        52
    46.4600        60
    46.6800        34
    46.9000        56
    47.1200        72
    47.3400        44
    47.5600        38
    47.7800        28
    48.0000        52
    48.2200       164
    48.4400        76
    48.6600        40
    48.8800        56
    49.1000        90
    49.3200       118
    49.5400       220
    49.7600        76
    49.9800        86
    50.2000        90
    50.4200        62
    50.6400       214
    50.8600        72
    51.0800        80
    51.3000       108
    51.5200       152
    51.7400        50
    51.9600       100
    52.1800       108
    52.4000        88
    52.6200        82
    52.8400        74
    53.0600        88
    53.2800       104
    53.5000        86
    53.7200        40
    53.9400        52
    54.1600        58
    54.3800        72
    54.6000        48
    54.8200        56
    55.0400        38
    55.2600        42
    55.4800        62
    55.7000        38
    55.9200        22
    56.1400        42
    56.3600        60
    56.5800        38
    56.8000        38
    57.0200        54
    57.2400        88
    57.4600        78
    57.6800        42
    57.9000        52
    58.1200        62
    58.3400        32
    58.5600        74
    58.7800        88
    59.0000        54
    59.2200        38
    59.4400        44
    59.6600        60
    59.8800        88
    60.1000        58
    60.3200        38
    60.5400        38
    60.7600        60
    60.9800        82
    61.2000        58
    61.4200        30
    61.6400        42
    61.8600        54
    62.0800       112
    62.3000        60
    62.5200        90
    62.7400        92
    62.9600        66
    63.1800        80
    63.4000        48
    63.6200        40
    63.8400        82
    64.0600        82
    64.2800        58
    64.5000        68
    64.7200        46
    64.9400        48
    65.0000        52

File: WS738---Clinoptilolite.txt
/////////////////////////////////////////////////////////////////////////////////
/// Profile Data Ascii Dump (XRD)                                             ///
/////////////////////////////////////////////////////////////////////////////////

  Group     : Swayze
  Data      : WS738
  File Name : WS738.RAW

# Profile Datafile
          comment             = Clinoptilolite
          date & time         = 08-03-13 05:50:54

# Measurement Condition
    X-ray tube
          target              = Cu
          voltage             = 40.0 (kV)
          current             = 30.0 (mA)
    Slits
          divergence slit     = 2.00000 (deg)
          scatter slit        = 2.00000 (deg)
          receiving slit      = 0.15000 (mm)
    Scanning
          drive axis          = Theta-2Theta
          scan range          =    4.000 -   65.000
          scan mode           = Continuous Scan
          scan speed          =   2.0000 (deg/min)
          sampling pitch      =   0.0200 (deg)
          preset time         =   0.60 (sec)

# Data      [ Total No. = 3051 ]
  <2Theta>   <   I   >
     4.0000       238
     4.2200       178
     4.4400       200
     4.6600       170
     4.8800       184
     5.1000       218
     5.3200       178
     5.5400       172
     5.7600       188
     5.9800       180
     6.2000       164
     6.4200       130
     6.6400       150
     6.8600       130
     7.0800       144
     7.3000       138
     7.5200       142
     7.7400       136
     7.9600       124
     8.1800       114
     8.4000       124
     8.6200       140
     8.8400       154
     9.0600       150
     9.2800       154
     9.5000       240
     9.7200       492
     9.9400       232
    10.1600       126
    10.3800        98
    10.6000       108
    10.8200       164
    11.0400       380
    11.2600       128
    11.4800       106
    11.7000       100
    11.9200        94
    12.1400        98
    12.3600        86
    12.5800        98
    12.8000       132
    13.0200       152
    13.2400       112
    13.4600        72
    13.6800        78
    13.9000        66
    14.1200        86
    14.3400        72
    14.5600        82
    14.7800       116
    15.0000        88
    15.2200        72
    15.4400        88
    15.6600        94
    15.8800        86
    16.1000        74
    16.3200        76
    16.5400        92
    16.7600       120
    16.9800       142
    17.2000       328
    17.4200       118
    17.6400        80
    17.8600        70
    18.0800        90
    18.3000        82
    18.5200        82
    18.7400        76
    18.9600       222
    19.1800        86
    19.4000        84
    19.6200        96
    19.8400        98
    20.0600       102
    20.2800       184
    20.5000       138
    20.7200       110
    20.9400       118
    21.1600       154
    21.3800       196
    21.6000       260
    21.8200       224
    22.0400       332
    22.2600       892
    22.4800       644
    22.7000       502
    22.9200       194
    23.1400       140
    23.3600       102
    23.5800        80
    23.8000       140
    24.0200       118
    24.2400        94
    24.4600        74
    24.6800        84
    24.9000       198
    25.1200       112
    25.3400       116
    25.5600       132
    25.7800       170
    26.0000       390
    26.2200       282
    26.4400       136
    26.6600       230
    26.8800       126
    27.1000        88
    27.3200        78
    27.5400        68
    27.7600       108
    27.9800       258
    28.2000       222
    28.4200       188
    28.6400       216
    28.8600       170
    29.0800       156
    29.3000       120
    29.5200       148
    29.7400       254
    29.9600       454
    30.1800       354
    30.4000       136
    30.6200        66
    30.8400        86
    31.0600        86
    31.2800        80
    31.5000        78
    31.7200       138
    31.9400       418
    32.1600        94
    32.3800        80
    32.6000       152
    32.8200       228
    33.0400        86
    33.2600       112
    33.4800       130
    33.7000        60
    33.9200        64
    34.1400        52
    34.3600        76
    34.5800        84
    34.8000        76
    35.0200       124
    35.2400       104
    35.4600       136
    35.6800       114
    35.9000       116
    36.1200       116
    36.3400        80
    36.5600       134
    36.7800       188
    37.0000       184
    37.2200        88
    37.4400        72
    37.6600        88
    37.8800        68
    38.1000        86
    38.3200        76
    38.5400        56
    38.7600        70
    38.9800        78
    39.2000        66
    39.4200        74
    39.6400        64
    39.8600        66
    40.0800        68
    40.3000        76
    40.5200        66
    40.7400        52
    40.9600        66
    41.1800        78
    41.4000        86
    41.6200        72
    41.8400        62
    42.0600        62
    42.2800        56
    42.5000        86
    42.7200        80
    42.9400        66
    43.1600       116
    43.3800        76
    43.6000        86
    43.8200        62
    44.0400        80
    44.2600        72
    44.4800        68
    44.7000        68
    44.9200       126
    45.1400        56
    45.3600        54
    45.5800        48
    45.8000        64
    46.0200        72
    46.2400       110
    46.4600        78
    46.6800        70
    46.9000        92
    47.1200        78
    47.3400        64
    47.5600        64
    47.7800        62
    48.0000        48
    48.2200        40
    48.4400        50
    48.6600        68
    48.8800        60
    49.1000        70
    49.3200        52
    49.5400        60
    49.7600        64
    49.9800        92
    50.2000        60
    50.4200        58
    50.6400        52
    50.8600        76
    51.0800        74
    51.3000        72
    51.5200        92
    51.7400       102
    51.9600        96
    52.1800        96
    52.4000        84
    52.6200        54
    52.8400        70
    53.0600       100
    53.2800        52
    53.5000        48
    53.7200        60
    53.9400        68
    54.1600       116
    54.3800        88
    54.6000        58
    54.8200        62
    55.0400        68
    55.2600        68
    55.4800        70
    55.7000        78
    55.9200        86
    56.1400        66
    56.3600        64
    56.5800        86
    56.8000        60
    57.0200        88
    57.2400        60
    57.4600        48
    57.6800        60
    57.9000        82
    58.1200        78
    58.3400        62
    58.5600        42
    58.7800        58
    59.0000        70
    59.2200        72
    59.4400        54
    59.6600        60
    59.8800        46
    60.1000        72
    60.3200        54
    60.5400        64
    60.7600        58
    60.9800        68
    61.2000        60
    61.4200        58
    61.6400        52
    61.8600        46
    62.0800        62
    62.3000        74
    62.5200        74
    62.7400        70
    62.9600        72
    63.1800        74
    63.4000        82
    63.6200        66
    63.8400        62
    64.0600        70
    64.2800        88
    64.5000        64
    64.7200        74
    64.9400        92
    65.0000        96