Folder: spectroscopy-tetracorder/sl1/usgs/library06/DESCRIPT/new_xrd_results_to_be_added/Rhonda_Driscoll_xrd_runs (part 3)

File: GDS25---Butlerite.txt
/////////////////////////////////////////////////////////////////////////////////
/// Profile Data Ascii Dump (XRD)                                             ///
/////////////////////////////////////////////////////////////////////////////////

  Group     : Swayze
  Data      : GDS25
  File Name : GDS25.RAW

# Profile Datafile
          comment             = Butlerite
          date & time         = 08-03-27 06:45:47

# Measurement Condition
    X-ray tube
          target              = Cu
          voltage             = 40.0 (kV)
          current             = 30.0 (mA)
    Slits
          divergence slit     = 2.00000 (deg)
          scatter slit        = 2.00000 (deg)
          receiving slit      = 0.15000 (mm)
    Scanning
          drive axis          = Theta-2Theta
          scan range          =    4.000 -   65.000
          scan mode           = Continuous Scan
          scan speed          =   2.0000 (deg/min)
          sampling pitch      =   0.0200 (deg)
          preset time         =   0.60 (sec)

# Data      [ Total No. = 3051 ]
  <2Theta>   <   I   >
     4.0000       202
     4.2200       168
     4.4400       192
     4.6600       164
     4.8800       150
     5.1000       152
     5.3200       150
     5.5400       154
     5.7600       136
     5.9800       154
     6.2000       142
     6.4200       134
     6.6400       124
     6.8600       140
     7.0800       114
     7.3000       126
     7.5200       124
     7.7400       120
     7.9600       120
     8.1800        96
     8.4000       104
     8.6200       108
     8.8400       116
     9.0600       112
     9.2800       102
     9.5000       104
     9.7200       116
     9.9400        92
    10.1600       100
    10.3800       100
    10.6000        92
    10.8200        96
    11.0400        94
    11.2600        92
    11.4800        74
    11.7000        80
    11.9200        84
    12.1400        66
    12.3600        72
    12.5800        70
    12.8000        72
    13.0200        72
    13.2400        76
    13.4600        60
    13.6800        80
    13.9000        76
    14.1200        90
    14.3400        80
    14.5600        68
    14.7800        74
    15.0000        56
    15.2200        68
    15.4400        64
    15.6600        84
    15.8800       176
    16.1000        64
    16.3200        66
    16.5400        54
    16.7600        56
    16.9800        66
    17.2000       106
    17.4200       192
    17.6400      1060
    17.8600       104
    18.0800        70
    18.3000        64
    18.5200       112
    18.7400       102
    18.9600        52
    19.1800        44
    19.4000        48
    19.6200        68
    19.8400       126
    20.0600        96
    20.2800        50
    20.5000        50
    20.7200        68
    20.9400        46
    21.1600        62
    21.3800        64
    21.6000        44
    21.8200        38
    22.0400        40
    22.2600        52
    22.4800        52
    22.7000        48
    22.9200        52
    23.1400        38
    23.3600        32
    23.5800        62
    23.8000        56
    24.0200        74
    24.2400        48
    24.4600        96
    24.6800       186
    24.9000        48
    25.1200        60
    25.3400        56
    25.5600        38
    25.7800        44
    26.0000        50
    26.2200        40
    26.4400        40
    26.6600        32
    26.8800        36
    27.1000        68
    27.3200       110
    27.5400       176
    27.7600       106
    27.9800       624
    28.2000       356
    28.4200        76
    28.6400        84
    28.8600       238
    29.0800       218
    29.3000        50
    29.5200        44
    29.7400        42
    29.9600        72
    30.1800        30
    30.4000        54
    30.6200        80
    30.8400        64
    31.0600        50
    31.2800       130
    31.5000        42
    31.7200        34
    31.9400        46
    32.1600        48
    32.3800        42
    32.6000        34
    32.8200        34
    33.0400        50
    33.2600        44
    33.4800        44
    33.7000        30
    33.9200        30
    34.1400        40
    34.3600        72
    34.5800        76
    34.8000        76
    35.0200        52
    35.2400        36
    35.4600        46
    35.6800       114
    35.9000       236
    36.1200        38
    36.3400        42
    36.5600        40
    36.7800        34
    37.0000        40
    37.2200        68
    37.4400       112
    37.6600        44
    37.8800        46
    38.1000        50
    38.3200        28
    38.5400        34
    38.7600        36
    38.9800        28
    39.2000        52
    39.4200        86
    39.6400        44
    39.8600        40
    40.0800        38
    40.3000        40
    40.5200        44
    40.7400        32
    40.9600        44
    41.1800        40
    41.4000        40
    41.6200        34
    41.8400        36
    42.0600        40
    42.2800        42
    42.5000        34
    42.7200        20
    42.9400        24
    43.1600        56
    43.3800        80
    43.6000        78
    43.8200        54
    44.0400        40
    44.2600        38
    44.4800        80
    44.7000        34
    44.9200        76
    45.1400        58
    45.3600        58
    45.5800        76
    45.8000        50
    46.0200        38
    46.2400        34
    46.4600        36
    46.6800        48
    46.9000        76
    47.1200        92
    47.3400        46
    47.5600        42
    47.7800        58
    48.0000        34
    48.2200        56
    48.4400        80
    48.6600        82
    48.8800        48
    49.1000        78
    49.3200       256
    49.5400        60
    49.7600        40
    49.9800        42
    50.2000        46
    50.4200        50
    50.6400        50
    50.8600        40
    51.0800        32
    51.3000        40
    51.5200        42
    51.7400        52
    51.9600        56
    52.1800       148
    52.4000        76
    52.6200        50
    52.8400       124
    53.0600        80
    53.2800        46
    53.5000        40
    53.7200        38
    53.9400        32
    54.1600        38
    54.3800        44
    54.6000        40
    54.8200        66
    55.0400       118
    55.2600        56
    55.4800        46
    55.7000        64
    55.9200       134
    56.1400        52
    56.3600        68
    56.5800        52
    56.8000        92
    57.0200        46
    57.2400        28
    57.4600        36
    57.6800        48
    57.9000        66
    58.1200       108
    58.3400        56
    58.5600        44
    58.7800        36
    59.0000        28
    59.2200        46
    59.4400        46
    59.6600        44
    59.8800        34
    60.1000        50
    60.3200        50
    60.5400        28
    60.7600        36
    60.9800        40
    61.2000        32
    61.4200        34
    61.6400        40
    61.8600        48
    62.0800        56
    62.3000        54
    62.5200        66
    62.7400        36
    62.9600        36
    63.1800        30
    63.4000        46
    63.6200        32
    63.8400        58
    64.0600        42
    64.2800        50
    64.5000        34
    64.7200        34
    64.9400        60
    65.0000        60

File: GDS33---Europium-Oxide.txt
/////////////////////////////////////////////////////////////////////////////////
/// Profile Data Ascii Dump (XRD)                                             ///
/////////////////////////////////////////////////////////////////////////////////

  Group     : Swayze
  Data      : GDS33
  File Name : GDS33.RAW

# Profile Datafile
          comment             = Europium Oxide
          date & time         = 08-03-25 06:53:08

# Measurement Condition
    X-ray tube
          target              = Cu
          voltage             = 40.0 (kV)
          current             = 30.0 (mA)
    Slits
          divergence slit     = 2.00000 (deg)
          scatter slit        = 2.00000 (deg)
          receiving slit      = 0.15000 (mm)
    Scanning
          drive axis          = Theta-2Theta
          scan range          =    4.000 -   65.000
          scan mode           = Continuous Scan
          scan speed          =   2.0000 (deg/min)
          sampling pitch      =   0.0200 (deg)
          preset time         =   0.60 (sec)

# Data      [ Total No. = 3051 ]
  <2Theta>   <   I   >
     4.0000       174
     4.2200       176
     4.4400       176
     4.6600       138
     4.8800       152
     5.1000       160
     5.3200       162
     5.5400       146
     5.7600       138
     5.9800       126
     6.2000       148
     6.4200       130
     6.6400       112
     6.8600        92
     7.0800       136
     7.3000       100
     7.5200       126
     7.7400       118
     7.9600       104
     8.1800       108
     8.4000        96
     8.6200       100
     8.8400       108
     9.0600       114
     9.2800        90
     9.5000       100
     9.7200       104
     9.9400        82
    10.1600       110
    10.3800        90
    10.6000        86
    10.8200        86
    11.0400       108
    11.2600        86
    11.4800        88
    11.7000        56
    11.9200        74
    12.1400        58
    12.3600        72
    12.5800        42
    12.8000        72
    13.0200        66
    13.2400        60
    13.4600        66
    13.6800        68
    13.9000        72
    14.1200        70
    14.3400        68
    14.5600        70
    14.7800        62
    15.0000        78
    15.2200        68
    15.4400        68
    15.6600        64
    15.8800        64
    16.1000        60
    16.3200        60
    16.5400        48
    16.7600        54
    16.9800        52
    17.2000        50
    17.4200        52
    17.6400        54
    17.8600        44
    18.0800        52
    18.3000        44
    18.5200        54
    18.7400        54
    18.9600        50
    19.1800        52
    19.4000        50
    19.6200        54
    19.8400        78
    20.0600        66
    20.2800        60
    20.5000        46
    20.7200        60
    20.9400        54
    21.1600        58
    21.3800        54
    21.6000        50
    21.8200        60
    22.0400        64
    22.2600        66
    22.4800        48
    22.7000        44
    22.9200        46
    23.1400        46
    23.3600        30
    23.5800        42
    23.8000        32
    24.0200        48
    24.2400        44
    24.4600        42
    24.6800        34
    24.9000        30
    25.1200        42
    25.3400        42
    25.5600        42
    25.7800        36
    26.0000        32
    26.2200        30
    26.4400        48
    26.6600        56
    26.8800        72
    27.1000       116
    27.3200       134
    27.5400       146
    27.7600       134
    27.9800       170
    28.2000       378
    28.4200       594
    28.6400       152
    28.8600        78
    29.0800        60
    29.3000        58
    29.5200        50
    29.7400        52
    29.9600        66
    30.1800        62
    30.4000        70
    30.6200        56
    30.8400        58
    31.0600        54
    31.2800        68
    31.5000        92
    31.7200       112
    31.9400       100
    32.1600       108
    32.3800        74
    32.6000       112
    32.8200       252
    33.0400       128
    33.2600        42
    33.4800        44
    33.7000        30
    33.9200        26
    34.1400        24
    34.3600        40
    34.5800        32
    34.8000        52
    35.0200        62
    35.2400        34
    35.4600        40
    35.6800        30
    35.9000        34
    36.1200        32
    36.3400        38
    36.5600        38
    36.7800        22
    37.0000        32
    37.2200        28
    37.4400        26
    37.6600        26
    37.8800        36
    38.1000        32
    38.3200        46
    38.5400        48
    38.7600        84
    38.9800        82
    39.2000        60
    39.4200        52
    39.6400        62
    39.8600        54
    40.0800        38
    40.3000        26
    40.5200        30
    40.7400        24
    40.9600        36
    41.1800        36
    41.4000        42
    41.6200        34
    41.8400        42
    42.0600        54
    42.2800        68
    42.5000        46
    42.7200        26
    42.9400        32
    43.1600        26
    43.3800        24
    43.6000        28
    43.8200        40
    44.0400        44
    44.2600        34
    44.4800        40
    44.7000        32
    44.9200        44
    45.1400        58
    45.3600        68
    45.5800        68
    45.8000        62
    46.0200        50
    46.2400        38
    46.4600        56
    46.6800        56
    46.9000        80
    47.1200       180
    47.3400       188
    47.5600        76
    47.7800        60
    48.0000        52
    48.2200        48
    48.4400        52
    48.6600        48
    48.8800        54
    49.1000        42
    49.3200        44
    49.5400        44
    49.7600        34
    49.9800        38
    50.2000        60
    50.4200        44
    50.6400        42
    50.8600        40
    51.0800        54
    51.3000        44
    51.5200        60
    51.7400        74
    51.9600        62
    52.1800        58
    52.4000        40
    52.6200        46
    52.8400        24
    53.0600        46
    53.2800        48
    53.5000        36
    53.7200        50
    53.9400        66
    54.1600        50
    54.3800        48
    54.6000        68
    54.8200        56
    55.0400        54
    55.2600        46
    55.4800        60
    55.7000        72
    55.9200       130
    56.1400       154
    56.3600        80
    56.5800        50
    56.8000        34
    57.0200        40
    57.2400        42
    57.4600        68
    57.6800        40
    57.9000        44
    58.1200        44
    58.3400        44
    58.5600        46
    58.7800        64
    59.0000        46
    59.2200        56
    59.4400        36
    59.6600        38
    59.8800        40
    60.1000        44
    60.3200        52
    60.5400        32
    60.7600        36
    60.9800        42
    61.2000        28
    61.4200        38
    61.6400        36
    61.8600        32
    62.0800        28
    62.3000        28
    62.5200        38
    62.7400        32
    62.9600        34
    63.1800        26
    63.4000        30
    63.6200        28
    63.8400        20
    64.0600        30
    64.2800        42
    64.5000        22
    64.7200        28
    64.9400        38
    65.0000        28

File: GDS37A---Scapolite-grp..txt
/////////////////////////////////////////////////////////////////////////////////
/// Profile Data Ascii Dump (XRD)                                             ///
/////////////////////////////////////////////////////////////////////////////////

  Group     : Swayze
  Data      : GDS37A
  File Name : GDS37A.RAW

# Profile Datafile
          comment             = Scapolite grp
          date & time         = 08-03-27 06:14:48

# Measurement Condition
    X-ray tube
          target              = Cu
          voltage             = 40.0 (kV)
          current             = 30.0 (mA)
    Slits
          divergence slit     = 2.00000 (deg)
          scatter slit        = 2.00000 (deg)
          receiving slit      = 0.15000 (mm)
    Scanning
          drive axis          = Theta-2Theta
          scan range          =    4.000 -   65.000
          scan mode           = Continuous Scan
          scan speed          =   2.0000 (deg/min)
          sampling pitch      =   0.0200 (deg)
          preset time         =   0.60 (sec)

# Data      [ Total No. = 3051 ]
  <2Theta>   <   I   >
     4.0000       208
     4.2200       168
     4.4400       160
     4.6600       156
     4.8800       166
     5.1000       150
     5.3200       160
     5.5400       164
     5.7600       190
     5.9800       146
     6.2000       168
     6.4200       138
     6.6400       126
     6.8600       130
     7.0800       132
     7.3000       110
     7.5200       108
     7.7400       118
     7.9600       116
     8.1800       118
     8.4000       132
     8.6200       114
     8.8400       114
     9.0600       104
     9.2800       124
     9.5000       114
     9.7200       110
     9.9400       110
    10.1600       126
    10.3800       110
    10.6000       102
    10.8200       108
    11.0400        94
    11.2600        94
    11.4800        84
    11.7000        90
    11.9200        94
    12.1400        82
    12.3600        80
    12.5800        70
    12.8000        66
    13.0200        72
    13.2400        80
    13.4600        94
    13.6800       206
    13.9000        84
    14.1200        62
    14.3400        92
    14.5600       154
    14.7800        72
    15.0000        60
    15.2200        54
    15.4400        58
    15.6600        68
    15.8800        54
    16.1000        54
    16.3200        60
    16.5400        58
    16.7600        38
    16.9800        62
    17.2000        50
    17.4200        66
    17.6400        50
    17.8600        50
    18.0800        40
    18.3000        58
    18.5200        58
    18.7400        64
    18.9600        48
    19.1800        52
    19.4000        52
    19.6200        52
    19.8400        52
    20.0600        94
    20.2800        44
    20.5000        56
    20.7200       126
    20.9400        44
    21.1600        38
    21.3800        52
    21.6000        46
    21.8200        62
    22.0400        38
    22.2600        44
    22.4800        46
    22.7000        52
    22.9200        88
    23.1400       682
    23.3600       124
    23.5800        44
    23.8000        58
    24.0200        40
    24.2400        42
    24.4600        70
    24.6800        66
    24.9000       266
    25.1200        92
    25.3400       182
    25.5600      2470
    25.7800       116
    26.0000        48
    26.2200        48
    26.4400        56
    26.6600        46
    26.8800        36
    27.1000        44
    27.3200        40
    27.5400        46
    27.7600        50
    27.9800        50
    28.2000        56
    28.4200        50
    28.6400        72
    28.8600       208
    29.0800      1288
    29.3000       154
    29.5200       864
    29.7400        52
    29.9600        40
    30.1800        30
    30.4000        40
    30.6200        34
    30.8400        42
    31.0600        44
    31.2800       188
    31.5000        92
    31.7200        48
    31.9400        40
    32.1600        38
    32.3800        40
    32.6000       178
    32.8200       116
    33.0400       410
    33.2600       450
    33.4800        48
    33.7000        42
    33.9200        26
    34.1400        24
    34.3600        24
    34.5800        34
    34.8000        26
    35.0200        36
    35.2400        36
    35.4600        32
    35.6800        32
    35.9000        30
    36.1200        44
    36.3400        40
    36.5600        30
    36.7800        40
    37.0000        34
    37.2200        50
    37.4400        40
    37.6600        32
    37.8800        68
    38.1000        36
    38.3200        34
    38.5400        44
    38.7600        38
    38.9800       200
    39.2000       140
    39.4200        58
    39.6400        44
    39.8600        42
    40.0800        26
    40.3000        42
    40.5200        36
    40.7400        46
    40.9600       142
    41.1800        42
    41.4000        38
    41.6200        54
    41.8400        96
    42.0600       274
    42.2800        92
    42.5000        42
    42.7200        36
    42.9400        38
    43.1600        36
    43.3800        38
    43.6000        72
    43.8200        24
    44.0400        36
    44.2600        32
    44.4800        46
    44.7000        68
    44.9200       134
    45.1400        98
    45.3600        24
    45.5800        26
    45.8000        38
    46.0200        38
    46.2400        42
    46.4600        38
    46.6800        44
    46.9000        36
    47.1200        90
    47.3400       496
    47.5600       724
    47.7800       162
    48.0000       116
    48.2200        40
    48.4400        36
    48.6600        30
    48.8800        30
    49.1000        26
    49.3200        24
    49.5400        46
    49.7600       108
    49.9800        50
    50.2000       148
    50.4200        30
    50.6400        32
    50.8600        20
    51.0800        30
    51.3000        36
    51.5200        32
    51.7400        24
    51.9600        36
    52.1800        80
    52.4000        44
    52.6200        44
    52.8400        38
    53.0600        28
    53.2800        36
    53.5000        64
    53.7200        88
    53.9400        44
    54.1600        32
    54.3800        30
    54.6000        92
    54.8200        52
    55.0400        28
    55.2600        28
    55.4800        28
    55.7000        34
    55.9200        34
    56.1400        40
    56.3600        38
    56.5800        26
    56.8000        86
    57.0200        30
    57.2400       132
    57.4600        96
    57.6800        34
    57.9000        22
    58.1200        44
    58.3400        36
    58.5600        48
    58.7800        24
    59.0000       152
    59.2200       188
    59.4400       116
    59.6600        26
    59.8800        32
    60.1000        28
    60.3200        60
    60.5400        44
    60.7600        32
    60.9800        42
    61.2000       122
    61.4200        68
    61.6400        36
    61.8600        28
    62.0800        30
    62.3000        36
    62.5200        48
    62.7400        36
    62.9600        28
    63.1800        68
    63.4000        88
    63.6200       194
    63.8400        54
    64.0600        28
    64.2800        32
    64.5000        38
    64.7200        30
    64.9400        38
    65.0000        26