Folder: spectroscopy-tetracorder/sl1/usgs/library06/DESCRIPT/new_xrd_results_to_be_added/Rhonda_Driscoll_xrd_runs (part 19)

File: WS423-Chlorapatite.txt
/////////////////////////////////////////////////////////////////////////////////
/// Profile Data Ascii Dump (XRD)                                             ///
/////////////////////////////////////////////////////////////////////////////////

  Group     : Swayze
  Data      : WS423
  File Name : WS423.RAW

# Profile Datafile
          comment             = Chlorapatite
          date & time         = 08-04-08 06:58:39

# Measurement Condition
    X-ray tube
          target              = Cu
          voltage             = 40.0 (kV)
          current             = 30.0 (mA)
    Slits
          divergence slit     = 2.00000 (deg)
          scatter slit        = 2.00000 (deg)
          receiving slit      = 0.15000 (mm)
    Scanning
          drive axis          = Theta-2Theta
          scan range          =    4.000 -   65.000
          scan mode           = Continuous Scan
          scan speed          =   2.0000 (deg/min)
          sampling pitch      =   0.0200 (deg)
          preset time         =   0.60 (sec)

# Data      [ Total No. = 3051 ]
  <2Theta>   <   I   >
     4.0000       186
     4.2200       168
     4.4400       190
     4.6600       152
     4.8800       182
     5.1000       174
     5.3200       166
     5.5400       138
     5.7600       146
     5.9800       150
     6.2000       138
     6.4200       160
     6.6400       124
     6.8600       128
     7.0800       126
     7.3000       116
     7.5200       116
     7.7400        98
     7.9600       118
     8.1800       114
     8.4000       126
     8.6200       124
     8.8400       128
     9.0600       120
     9.2800       108
     9.5000       120
     9.7200       104
     9.9400       108
    10.1600       116
    10.3800        82
    10.6000       112
    10.8200        94
    11.0400        86
    11.2600        96
    11.4800        76
    11.7000        80
    11.9200        96
    12.1400        72
    12.3600        76
    12.5800        68
    12.8000        78
    13.0200        58
    13.2400        70
    13.4600        68
    13.6800        76
    13.9000        64
    14.1200        74
    14.3400        68
    14.5600        62
    14.7800        62
    15.0000        68
    15.2200        44
    15.4400        62
    15.6600        50
    15.8800        54
    16.1000        66
    16.3200        56
    16.5400        62
    16.7600       120
    16.9800        46
    17.2000        42
    17.4200        56
    17.6400        52
    17.8600        42
    18.0800        50
    18.3000        42
    18.5200        32
    18.7400        46
    18.9600        36
    19.1800        42
    19.4000        52
    19.6200        44
    19.8400        40
    20.0600        42
    20.2800        48
    20.5000        42
    20.7200        62
    20.9400        34
    21.1600        44
    21.3800        42
    21.6000        58
    21.8200        40
    22.0400        48
    22.2600        34
    22.4800        50
    22.7000        50
    22.9200        54
    23.1400        36
    23.3600        38
    23.5800        42
    23.8000        24
    24.0200        44
    24.2400        34
    24.4600        32
    24.6800        28
    24.9000        66
    25.1200        44
    25.3400        38
    25.5600        30
    25.7800        52
    26.0000        96
    26.2200       166
    26.4400        60
    26.6600        66
    26.8800        26
    27.1000        36
    27.3200        36
    27.5400        32
    27.7600        40
    27.9800        32
    28.2000       110
    28.4200        58
    28.6400        34
    28.8600        36
    29.0800        36
    29.3000        40
    29.5200        30
    29.7400        44
    29.9600        32
    30.1800        34
    30.4000        28
    30.6200        32
    30.8400        52
    31.0600       184
    31.2800       818
    31.5000        84
    31.7200        64
    31.9400       168
    32.1600      1992
    32.3800       138
    32.6000        62
    32.8200        38
    33.0400        30
    33.2600        30
    33.4800        36
    33.7000        48
    33.9200       186
    34.1400        44
    34.3600        30
    34.5800        24
    34.8000        80
    35.0200        32
    35.2400        24
    35.4600        34
    35.6800        34
    35.9000        30
    36.1200        34
    36.3400        30
    36.5600        34
    36.7800        30
    37.0000        30
    37.2200        26
    37.4400        30
    37.6600        26
    37.8800        30
    38.1000        24
    38.3200        26
    38.5400        30
    38.7600        86
    38.9800       222
    39.2000        36
    39.4200        36
    39.6400        40
    39.8600        32
    40.0800        24
    40.3000        34
    40.5200        22
    40.7400        24
    40.9600        26
    41.1800       158
    41.4000        48
    41.6200        26
    41.8400        46
    42.0600        48
    42.2800        28
    42.5000        30
    42.7200        34
    42.9400        22
    43.1600        24
    43.3800        36
    43.6000        24
    43.8200        28
    44.0400        58
    44.2600        50
    44.4800        22
    44.7000        22
    44.9200        20
    45.1400        32
    45.3600        34
    45.5800        48
    45.8000        30
    46.0200       100
    46.2400       348
    46.4600        48
    46.6800        34
    46.9000        30
    47.1200        22
    47.3400        34
    47.5600        88
    47.7800        30
    48.0000        30
    48.2200        18
    48.4400        26
    48.6600        26
    48.8800        26
    49.1000        42
    49.3200        88
    49.5400       416
    49.7600        60
    49.9800        44
    50.2000       128
    50.4200        30
    50.6400        26
    50.8600        26
    51.0800        28
    51.3000        60
    51.5200        56
    51.7400        18
    51.9600        42
    52.1800        32
    52.4000        26
    52.6200        22
    52.8400        18
    53.0600        32
    53.2800        30
    53.5000        28
    53.7200        36
    53.9400       144
    54.1600        40
    54.3800        32
    54.6000        28
    54.8200        22
    55.0400        78
    55.2600        46
    55.4800        32
    55.7000        26
    55.9200        20
    56.1400        18
    56.3600        24
    56.5800        30
    56.8000       110
    57.0200        72
    57.2400        34
    57.4600        66
    57.6800        36
    57.9000        34
    58.1200        24
    58.3400        28
    58.5600        84
    58.7800        40
    59.0000        18
    59.2200        48
    59.4400        30
    59.6600        22
    59.8800        28
    60.1000        28
    60.3200        56
    60.5400        22
    60.7600        28
    60.9800        20
    61.2000        22
    61.4200        20
    61.6400        20
    61.8600        42
    62.0800        78
    62.3000        24
    62.5200        22
    62.7400        16
    62.9600        34
    63.1800        22
    63.4000        32
    63.6200       174
    63.8400        88
    64.0600        42
    64.2800        50
    64.5000        22
    64.7200        30
    64.9400        28
    65.0000        28

File: WS425-Apatite-hydroxyl.txt
/////////////////////////////////////////////////////////////////////////////////
/// Profile Data Ascii Dump (XRD)                                             ///
/////////////////////////////////////////////////////////////////////////////////

  Group     : Swayze
  Data      : WS425
  File Name : WS425.RAW

# Profile Datafile
          comment             = Apatite-hydroxyl
          date & time         = 08-04-08 10:00:56

# Measurement Condition
    X-ray tube
          target              = Cu
          voltage             = 40.0 (kV)
          current             = 30.0 (mA)
    Slits
          divergence slit     = 2.00000 (deg)
          scatter slit        = 2.00000 (deg)
          receiving slit      = 0.15000 (mm)
    Scanning
          drive axis          = Theta-2Theta
          scan range          =    4.000 -   65.000
          scan mode           = Continuous Scan
          scan speed          =   2.0000 (deg/min)
          sampling pitch      =   0.0200 (deg)
          preset time         =   0.60 (sec)

# Data      [ Total No. = 3051 ]
  <2Theta>   <   I   >
     4.0000       170
     4.2200       176
     4.4400       142
     4.6600       156
     4.8800       142
     5.1000       152
     5.3200       132
     5.5400       140
     5.7600       138
     5.9800       146
     6.2000       154
     6.4200       142
     6.6400       126
     6.8600       112
     7.0800       114
     7.3000       104
     7.5200       116
     7.7400       108
     7.9600       106
     8.1800       112
     8.4000       116
     8.6200        96
     8.8400       116
     9.0600       116
     9.2800       100
     9.5000       114
     9.7200       108
     9.9400        92
    10.1600       100
    10.3800        96
    10.6000        96
    10.8200       114
    11.0400       100
    11.2600        74
    11.4800        78
    11.7000        90
    11.9200        74
    12.1400        86
    12.3600        68
    12.5800        64
    12.8000        66
    13.0200        60
    13.2400        50
    13.4600        64
    13.6800        64
    13.9000        60
    14.1200        62
    14.3400        58
    14.5600        58
    14.7800        48
    15.0000        64
    15.2200        54
    15.4400        64
    15.6600        46
    15.8800        50
    16.1000        44
    16.3200        46
    16.5400        46
    16.7600        50
    16.9800        42
    17.2000        56
    17.4200        60
    17.6400        36
    17.8600        48
    18.0800        44
    18.3000        38
    18.5200        48
    18.7400        68
    18.9600        48
    19.1800        38
    19.4000        46
    19.6200        56
    19.8400        64
    20.0600        46
    20.2800        50
    20.5000        46
    20.7200        62
    20.9400        32
    21.1600        50
    21.3800        38
    21.6000        50
    21.8200        72
    22.0400        44
    22.2600        38
    22.4800        40
    22.7000        52
    22.9200        72
    23.1400        42
    23.3600        42
    23.5800        34
    23.8000        38
    24.0200        34
    24.2400        28
    24.4600        38
    24.6800        38
    24.9000        32
    25.1200        40
    25.3400        68
    25.5600       138
    25.7800       244
    26.0000        54
    26.2200        48
    26.4400       102
    26.6600        62
    26.8800        46
    27.1000        32
    27.3200        44
    27.5400        34
    27.7600        52
    27.9800       120
    28.2000        66
    28.4200        40
    28.6400        48
    28.8600        82
    29.0800       122
    29.3000        46
    29.5200        28
    29.7400        36
    29.9600        26
    30.1800        42
    30.4000        32
    30.6200        34
    30.8400        48
    31.0600        42
    31.2800        50
    31.5000       104
    31.7200       476
    31.9400       594
    32.1600       376
    32.3800        88
    32.6000        64
    32.8200       140
    33.0400       416
    33.2600       114
    33.4800        40
    33.7000        48
    33.9200       134
    34.1400       162
    34.3600        46
    34.5800        42
    34.8000        28
    35.0200        36
    35.2400        28
    35.4600        42
    35.6800        52
    35.9000        22
    36.1200        20
    36.3400        22
    36.5600        30
    36.7800        20
    37.0000        22
    37.2200        24
    37.4400        28
    37.6600        22
    37.8800        34
    38.1000        32
    38.3200        34
    38.5400        24
    38.7600        26
    38.9800        34
    39.2000        62
    39.4200        48
    39.6400        52
    39.8600       134
    40.0800       138
    40.3000        64
    40.5200        48
    40.7400        40
    40.9600        36
    41.1800        28
    41.4000        18
    41.6200        44
    41.8400        38
    42.0600        62
    42.2800        50
    42.5000        40
    42.7200        38
    42.9400        26
    43.1600        22
    43.3800        16
    43.6000        34
    43.8200        50
    44.0400        30
    44.2600        30
    44.4800        28
    44.7000        42
    44.9200        26
    45.1400        58
    45.3600        48
    45.5800        32
    45.8000        26
    46.0200        26
    46.2400        26
    46.4600        46
    46.6800       154
    46.9000       180
    47.1200        48
    47.3400        30
    47.5600        30
    47.7800        26
    48.0000        58
    48.2200       124
    48.4400        48
    48.6600        42
    48.8800        58
    49.1000        54
    49.3200       124
    49.5400       216
    49.7600        72
    49.9800        42
    50.2000        40
    50.4200        50
    50.6400       118
    50.8600        86
    51.0800        42
    51.3000        50
    51.5200       106
    51.7400        56
    51.9600        38
    52.1800       106
    52.4000        70
    52.6200        24
    52.8400        62
    53.0600       134
    53.2800        50
    53.5000        38
    53.7200        38
    53.9400        26
    54.1600        24
    54.3800        24
    54.6000        28
    54.8200        30
    55.0400        24
    55.2600        28
    55.4800        20
    55.7000        22
    55.9200        58
    56.1400        50
    56.3600        32
    56.5800        20
    56.8000        22
    57.0200        34
    57.2400        28
    57.4600        28
    57.6800        20
    57.9000        22
    58.1200        34
    58.3400        26
    58.5600        34
    58.7800        32
    59.0000        32
    59.2200        28
    59.4400        16
    59.6600        32
    59.8800        30
    60.1000        40
    60.3200        54
    60.5400        36
    60.7600        42
    60.9800        38
    61.2000        38
    61.4200        30
    61.6400        52
    61.8600        44
    62.0800        34
    62.3000        32
    62.5200        24
    62.7400        22
    62.9600        22
    63.1800        84
    63.4000        72
    63.6200        54
    63.8400        60
    64.0600        74
    64.2800        70
    64.5000        46
    64.7200        20
    64.9400        24
    65.0000        20

File: WS479---Almandine.txt
/////////////////////////////////////////////////////////////////////////////////
/// Profile Data Ascii Dump (XRD)                                             ///
/////////////////////////////////////////////////////////////////////////////////

  Group     : Swayze
  Data      : WS479
  File Name : WS479.RAW

# Profile Datafile
          comment             = Almandine
          date & time         = 08-03-14 06:55:54

# Measurement Condition
    X-ray tube
          target              = Cu
          voltage             = 40.0 (kV)
          current             = 30.0 (mA)
    Slits
          divergence slit     = 2.00000 (deg)
          scatter slit        = 2.00000 (deg)
          receiving slit      = 0.15000 (mm)
    Scanning
          drive axis          = Theta-2Theta
          scan range          =    4.000 -   65.000
          scan mode           = Continuous Scan
          scan speed          =   2.0000 (deg/min)
          sampling pitch      =   0.0200 (deg)
          preset time         =   0.60 (sec)

# Data      [ Total No. = 3051 ]
  <2Theta>   <   I   >
     4.0000       210
     4.2200       200
     4.4400       200
     4.6600       166
     4.8800       150
     5.1000       164
     5.3200       162
     5.5400       142
     5.7600       148
     5.9800       134
     6.2000       178
     6.4200       160
     6.6400       134
     6.8600       122
     7.0800       114
     7.3000       106
     7.5200       148
     7.7400       142
     7.9600       118
     8.1800       126
     8.4000       118
     8.6200       150
     8.8400       146
     9.0600       154
     9.2800       102
     9.5000       122
     9.7200       108
     9.9400       118
    10.1600        98
    10.3800       104
    10.6000       120
    10.8200        84
    11.0400        90
    11.2600       108
    11.4800        90
    11.7000        88
    11.9200        98
    12.1400        88
    12.3600        82
    12.5800        76
    12.8000        86
    13.0200        66
    13.2400        72
    13.4600        74
    13.6800        82
    13.9000        70
    14.1200        90
    14.3400        60
    14.5600        66
    14.7800        72
    15.0000        70
    15.2200        64
    15.4400        76
    15.6600        64
    15.8800        52
    16.1000        72
    16.3200        66
    16.5400        76
    16.7600        54
    16.9800        42
    17.2000        52
    17.4200        34
    17.6400        58
    17.8600        56
    18.0800        60
    18.3000        42
    18.5200        62
    18.7400        78
    18.9600        54
    19.1800        62
    19.4000        48
    19.6200        66
    19.8400        40
    20.0600        50
    20.2800        54
    20.5000        50
    20.7200        56
    20.9400        52
    21.1600        50
    21.3800        62
    21.6000        74
    21.8200        50
    22.0400        40
    22.2600        36
    22.4800        38
    22.7000        54
    22.9200        44
    23.1400        40
    23.3600        40
    23.5800        44
    23.8000        46
    24.0200        44
    24.2400        44
    24.4600        42
    24.6800        40
    24.9000        36
    25.1200        40
    25.3400        32
    25.5600        50
    25.7800        32
    26.0000        34
    26.2200        36
    26.4400        52
    26.6600        50
    26.8800        42
    27.1000        38
    27.3200        28
    27.5400        32
    27.7600        34
    27.9800        40
    28.2000        28
    28.4200        40
    28.6400        36
    28.8600        58
    29.0800        34
    29.3000        40
    29.5200        26
    29.7400        26
    29.9600        42
    30.1800        42
    30.4000        44
    30.6200        50
    30.8400       288
    31.0600        70
    31.2800        34
    31.5000        26
    31.7200        38
    31.9400        24
    32.1600        32
    32.3800        34
    32.6000        42
    32.8200        32
    33.0400        36
    33.2600        22
    33.4800        22
    33.7000        28
    33.9200        28
    34.1400        34
    34.3600        74
    34.5800       532
    34.8000       286
    35.0200        40
    35.2400        28
    35.4600        30
    35.6800        30
    35.9000        24
    36.1200        26
    36.3400        64
    36.5600        42
    36.7800        38
    37.0000        34
    37.2200        28
    37.4400        34
    37.6600        26
    37.8800        48
    38.1000       206
    38.3200        38
    38.5400        36
    38.7600        44
    38.9800        24
    39.2000        38
    39.4200        28
    39.6400       102
    39.8600        88
    40.0800        34
    40.3000        28
    40.5200        26
    40.7400        22
    40.9600        30
    41.1800        22
    41.4000        24
    41.6200        28
    41.8400        30
    42.0600        30
    42.2800        44
    42.5000        20
    42.7200       100
    42.9400        90
    43.1600        26
    43.3800        24
    43.6000        24
    43.8200        24
    44.0400        28
    44.2600        44
    44.4800        40
    44.7000        26
    44.9200        20
    45.1400        24
    45.3600        22
    45.5800        30
    45.8000        20
    46.0200        26
    46.2400        32
    46.4600        22
    46.6800        22
    46.9000        22
    47.1200        30
    47.3400        28
    47.5600        20
    47.7800        24
    48.0000        34
    48.2200        34
    48.4400       238
    48.6600       298
    48.8800        34
    49.1000        24
    49.3200        22
    49.5400        16
    49.7600        20
    49.9800        46
    50.2000        26
    50.4200        32
    50.6400        20
    50.8600        26
    51.0800        22
    51.3000        26
    51.5200        26
    51.7400        20
    51.9600        22
    52.1800        34
    52.4000        22
    52.6200        30
    52.8400        28
    53.0600        24
    53.2800        28
    53.5000        28
    53.7200        32
    53.9400        34
    54.1600        28
    54.3800        26
    54.6000        26
    54.8200        42
    55.0400       558
    55.2600        92
    55.4800        30
    55.7000        24
    55.9200        24
    56.1400        30
    56.3600        38
    56.5800        30
    56.8000        32
    57.0200        34
    57.2400        34
    57.4600       398
    57.6800       204
    57.9000        34
    58.1200        30
    58.3400        40
    58.5600        44
    58.7800        56
    59.0000        26
    59.2200        26
    59.4400        32
    59.6600        56
    59.8800       728
    60.1000       172
    60.3200        32
    60.5400        20
    60.7600        22
    60.9800        26
    61.2000        18
    61.4200        22
    61.6400        24
    61.8600        18
    62.0800        22
    62.3000        34
    62.5200        18
    62.7400        24
    62.9600        28
    63.1800        30
    63.4000        26
    63.6200        22
    63.8400        24
    64.0600        34
    64.2800        32
    64.5000       496
    64.7200       104
    64.9400        34
    65.0000        30