Folder: spectroscopy-tetracorder/sl1/usgs/library06/DESCRIPT/new_xrd_results_to_be_added/Rhonda_Driscoll_xrd_runs (part 6)

File: GDS50A---Sapolite-grp..txt
/////////////////////////////////////////////////////////////////////////////////
/// Profile Data Ascii Dump (XRD)                                             ///
/////////////////////////////////////////////////////////////////////////////////

  Group     : Swayze
  Data      : GDS50A
  File Name : GDS50A.RAW

# Profile Datafile
          comment             = Scapolite grp
          date & time         = 08-03-27 07:47:40

# Measurement Condition
    X-ray tube
          target              = Cu
          voltage             = 40.0 (kV)
          current             = 30.0 (mA)
    Slits
          divergence slit     = 2.00000 (deg)
          scatter slit        = 2.00000 (deg)
          receiving slit      = 0.15000 (mm)
    Scanning
          drive axis          = Theta-2Theta
          scan range          =    4.000 -   65.000
          scan mode           = Continuous Scan
          scan speed          =   2.0000 (deg/min)
          sampling pitch      =   0.0200 (deg)
          preset time         =   0.60 (sec)

# Data      [ Total No. = 3051 ]
  <2Theta>   <   I   >
     4.0000       138
     4.2200       186
     4.4400       154
     4.6600       178
     4.8800       166
     5.1000       168
     5.3200       154
     5.5400       122
     5.7600       158
     5.9800       146
     6.2000       146
     6.4200       144
     6.6400       118
     6.8600       120
     7.0800       132
     7.3000       122
     7.5200       110
     7.7400        98
     7.9600        90
     8.1800        98
     8.4000       108
     8.6200       116
     8.8400       114
     9.0600       122
     9.2800        96
     9.5000       112
     9.7200       106
     9.9400        88
    10.1600        96
    10.3800        92
    10.6000       104
    10.8200        72
    11.0400        82
    11.2600        76
    11.4800        78
    11.7000        80
    11.9200        78
    12.1400        70
    12.3600        80
    12.5800        66
    12.8000        78
    13.0200        62
    13.2400        60
    13.4600        68
    13.6800       122
    13.9000        64
    14.1200        80
    14.3400        74
    14.5600       208
    14.7800        60
    15.0000        52
    15.2200        62
    15.4400        62
    15.6600        50
    15.8800        54
    16.1000        54
    16.3200        50
    16.5400        54
    16.7600        60
    16.9800        54
    17.2000        56
    17.4200        52
    17.6400        54
    17.8600        52
    18.0800        46
    18.3000        48
    18.5200        42
    18.7400        54
    18.9600        48
    19.1800        42
    19.4000        38
    19.6200        40
    19.8400        50
    20.0600        84
    20.2800        50
    20.5000        54
    20.7200        84
    20.9400        50
    21.1600        38
    21.3800        36
    21.6000        42
    21.8200        40
    22.0400        28
    22.2600        48
    22.4800        38
    22.7000        56
    22.9200       110
    23.1400       444
    23.3600        78
    23.5800        56
    23.8000        62
    24.0200        36
    24.2400        52
    24.4600        70
    24.6800        96
    24.9000       466
    25.1200        66
    25.3400       244
    25.5600      2048
    25.7800       128
    26.0000        70
    26.2200        46
    26.4400        36
    26.6600        40
    26.8800        26
    27.1000        44
    27.3200        44
    27.5400        36
    27.7600        40
    27.9800        44
    28.2000        40
    28.4200        46
    28.6400       108
    28.8600       336
    29.0800       718
    29.3000       260
    29.5200       500
    29.7400        52
    29.9600        26
    30.1800        26
    30.4000        28
    30.6200        42
    30.8400        30
    31.0600        52
    31.2800       222
    31.5000        84
    31.7200        38
    31.9400        24
    32.1600        34
    32.3800        56
    32.6000       334
    32.8200       128
    33.0400       356
    33.2600       448
    33.4800        46
    33.7000        36
    33.9200        32
    34.1400        24
    34.3600        28
    34.5800        36
    34.8000        30
    35.0200        46
    35.2400        40
    35.4600        28
    35.6800        42
    35.9000        22
    36.1200        36
    36.3400        28
    36.5600        24
    36.7800        38
    37.0000        38
    37.2200        40
    37.4400        30
    37.6600        44
    37.8800        72
    38.1000        38
    38.3200        40
    38.5400        28
    38.7600        48
    38.9800       196
    39.2000        66
    39.4200        80
    39.6400        34
    39.8600        22
    40.0800        30
    40.3000        38
    40.5200        40
    40.7400        48
    40.9600        58
    41.1800        30
    41.4000        36
    41.6200        38
    41.8400       188
    42.0600       292
    42.2800        62
    42.5000        40
    42.7200        32
    42.9400        26
    43.1600        36
    43.3800        40
    43.6000        98
    43.8200        34
    44.0400        34
    44.2600        36
    44.4800        36
    44.7000       102
    44.9200       200
    45.1400        54
    45.3600        34
    45.5800        24
    45.8000        38
    46.0200        28
    46.2400        34
    46.4600        28
    46.6800        48
    46.9000        44
    47.1200       266
    47.3400       482
    47.5600       206
    47.7800       306
    48.0000       168
    48.2200        32
    48.4400        32
    48.6600        36
    48.8800        42
    49.1000        38
    49.3200        38
    49.5400        42
    49.7600        68
    49.9800       168
    50.2000        58
    50.4200        38
    50.6400        36
    50.8600        28
    51.0800        34
    51.3000        38
    51.5200        22
    51.7400        20
    51.9600        72
    52.1800       118
    52.4000        46
    52.6200        44
    52.8400        30
    53.0600        24
    53.2800        42
    53.5000       124
    53.7200        52
    53.9400        36
    54.1600        30
    54.3800        36
    54.6000       114
    54.8200        50
    55.0400        18
    55.2600        30
    55.4800        26
    55.7000        40
    55.9200        26
    56.1400        24
    56.3600        32
    56.5800       138
    56.8000        64
    57.0200        28
    57.2400       122
    57.4600        52
    57.6800        42
    57.9000        50
    58.1200        46
    58.3400        36
    58.5600        36
    58.7800        34
    59.0000       284
    59.2200        82
    59.4400        34
    59.6600        34
    59.8800        24
    60.1000        42
    60.3200        34
    60.5400        30
    60.7600        52
    60.9800        86
    61.2000        92
    61.4200        46
    61.6400        30
    61.8600        22
    62.0800        30
    62.3000        42
    62.5200        40
    62.7400        48
    62.9600        40
    63.1800        82
    63.4000       198
    63.6200       194
    63.8400        56
    64.0600        38
    64.2800        24
    64.5000        24
    64.7200        30
    64.9400        26
    65.0000        36

File: GDS55---Na-bicarb.txt
/////////////////////////////////////////////////////////////////////////////////
/// Profile Data Ascii Dump (XRD)                                             ///
/////////////////////////////////////////////////////////////////////////////////

  Group     : Swayze
  Data      : GDS55
  File Name : GDS55.RAW

# Profile Datafile
          comment             = Na-bicarb
          date & time         = 08-03-13 06:52:47

# Measurement Condition
    X-ray tube
          target              = Cu
          voltage             = 40.0 (kV)
          current             = 30.0 (mA)
    Slits
          divergence slit     = 2.00000 (deg)
          scatter slit        = 2.00000 (deg)
          receiving slit      = 0.15000 (mm)
    Scanning
          drive axis          = Theta-2Theta
          scan range          =    4.000 -   65.000
          scan mode           = Continuous Scan
          scan speed          =   2.0000 (deg/min)
          sampling pitch      =   0.0200 (deg)
          preset time         =   0.60 (sec)

# Data      [ Total No. = 3051 ]
  <2Theta>   <   I   >
     4.0000       164
     4.2200       180
     4.4400       144
     4.6600       158
     4.8800       124
     5.1000       148
     5.3200       150
     5.5400       144
     5.7600       152
     5.9800       168
     6.2000       140
     6.4200       122
     6.6400       152
     6.8600       112
     7.0800       124
     7.3000       116
     7.5200       114
     7.7400       124
     7.9600       118
     8.1800       104
     8.4000       110
     8.6200       108
     8.8400       102
     9.0600       106
     9.2800       148
     9.5000       112
     9.7200       132
     9.9400        98
    10.1600       102
    10.3800       102
    10.6000        94
    10.8200        94
    11.0400        94
    11.2600        82
    11.4800        82
    11.7000       102
    11.9200        84
    12.1400        78
    12.3600        86
    12.5800        78
    12.8000        80
    13.0200        84
    13.2400        56
    13.4600        88
    13.6800        80
    13.9000        74
    14.1200        62
    14.3400        78
    14.5600        98
    14.7800       130
    15.0000       142
    15.2200        64
    15.4400        62
    15.6600        66
    15.8800        66
    16.1000        68
    16.3200        62
    16.5400        56
    16.7600        58
    16.9800        54
    17.2000        56
    17.4200        60
    17.6400        70
    17.8600        94
    18.0800       312
    18.3000      1052
    18.5200       100
    18.7400        60
    18.9600        64
    19.1800        40
    19.4000        62
    19.6200        46
    19.8400        52
    20.0600        46
    20.2800        62
    20.5000        58
    20.7200        42
    20.9400        54
    21.1600        70
    21.3800       104
    21.6000        74
    21.8200       156
    22.0400        52
    22.2600        80
    22.4800        80
    22.7000        56
    22.9200        44
    23.1400        58
    23.3600        60
    23.5800        86
    23.8000       132
    24.0200       268
    24.2400        82
    24.4600        48
    24.6800        56
    24.9000        70
    25.1200        94
    25.3400       282
    25.5600       454
    25.7800        70
    26.0000        56
    26.2200        64
    26.4400        66
    26.6600        64
    26.8800        82
    27.1000       208
    27.3200       124
    27.5400       172
    27.7600        72
    27.9800        62
    28.2000        96
    28.4200        92
    28.6400       284
    28.8600       530
    29.0800       598
    29.3000       162
    29.5200       126
    29.7400       216
    29.9600      1314
    30.1800      3032
    30.4000      1150
    30.6200       332
    30.8400       138
    31.0600       176
    31.2800       218
    31.5000       310
    31.7200       188
    31.9400       240
    32.1600        98
    32.3800        98
    32.6000       176
    32.8200       134
    33.0400       148
    33.2600       514
    33.4800       314
    33.7000       388
    33.9200       298
    34.1400       356
    34.3600      1548
    34.5800       260
    34.8000        90
    35.0200       154
    35.2400       134
    35.4600        94
    35.6800       102
    35.9000        98
    36.1200       176
    36.3400       142
    36.5600       204
    36.7800        96
    37.0000        72
    37.2200       172
    37.4400        94
    37.6600        80
    37.8800        80
    38.1000        72
    38.3200        86
    38.5400       138
    38.7600       186
    38.9800       666
    39.2000       158
    39.4200       118
    39.6400        92
    39.8600       108
    40.0800        98
    40.3000       202
    40.5200       620
    40.7400       850
    40.9600       146
    41.1800        82
    41.4000        72
    41.6200        54
    41.8400        68
    42.0600        58
    42.2800        72
    42.5000        84
    42.7200       116
    42.9400       130
    43.1600       248
    43.3800       204
    43.6000        86
    43.8200        88
    44.0400       128
    44.2600       384
    44.4800       800
    44.7000       144
    44.9200        92
    45.1400       148
    45.3600       184
    45.5800       308
    45.8000       278
    46.0200       588
    46.2400       122
    46.4600       122
    46.6800       268
    46.9000       244
    47.1200       140
    47.3400       194
    47.5600       488
    47.7800       272
    48.0000        86
    48.2200       118
    48.4400       228
    48.6600       122
    48.8800        92
    49.1000       100
    49.3200        82
    49.5400        66
    49.7600       108
    49.9800        94
    50.2000        96
    50.4200       104
    50.6400       104
    50.8600        86
    51.0800       138
    51.3000       174
    51.5200       116
    51.7400       110
    51.9600       118
    52.1800       134
    52.4000       230
    52.6200       302
    52.8400       126
    53.0600       148
    53.2800       146
    53.5000       140
    53.7200       122
    53.9400       152
    54.1600       196
    54.3800       114
    54.6000        78
    54.8200       106
    55.0400       160
    55.2600       216
    55.4800        94
    55.7000       110
    55.9200       134
    56.1400       140
    56.3600       210
    56.5800       158
    56.8000       294
    57.0200       634
    57.2400       134
    57.4600       112
    57.6800        98
    57.9000       130
    58.1200       194
    58.3400       250
    58.5600       106
    58.7800        68
    59.0000        88
    59.2200       100
    59.4400        68
    59.6600        96
    59.8800        94
    60.1000        94
    60.3200       140
    60.5400       214
    60.7600       220
    60.9800       108
    61.2000        66
    61.4200        82
    61.6400        84
    61.8600        74
    62.0800        72
    62.3000        88
    62.5200       204
    62.7400       146
    62.9600        80
    63.1800       106
    63.4000        98
    63.6200        80
    63.8400        62
    64.0600        72
    64.2800        98
    64.5000       112
    64.7200        88
    64.9400        76
    65.0000        74

File: GDS68---C-lamp-black.txt
/////////////////////////////////////////////////////////////////////////////////
/// Profile Data Ascii Dump (XRD)                                             ///
/////////////////////////////////////////////////////////////////////////////////

  Group     : Swayze
  Data      : GDS68
  File Name : GDS68.RAW

# Profile Datafile
          comment             = C lamp black
          date & time         = 08-03-14 07:57:50

# Measurement Condition
    X-ray tube
          target              = Cu
          voltage             = 40.0 (kV)
          current             = 30.0 (mA)
    Slits
          divergence slit     = 2.00000 (deg)
          scatter slit        = 2.00000 (deg)
          receiving slit      = 0.15000 (mm)
    Scanning
          drive axis          = Theta-2Theta
          scan range          =    4.000 -   65.000
          scan mode           = Continuous Scan
          scan speed          =   2.0000 (deg/min)
          sampling pitch      =   0.0200 (deg)
          preset time         =   0.60 (sec)

# Data      [ Total No. = 3051 ]
  <2Theta>   <   I   >
     4.0000       506
     4.2200       494
     4.4400       504
     4.6600       434
     4.8800       462
     5.1000       444
     5.3200       470
     5.5400       450
     5.7600       406
     5.9800       376
     6.2000       374
     6.4200       396
     6.6400       424
     6.8600       330
     7.0800       340
     7.3000       342
     7.5200       370
     7.7400       312
     7.9600       328
     8.1800       348
     8.4000       328
     8.6200       298
     8.8400       320
     9.0600       342
     9.2800       324
     9.5000       312
     9.7200       294
     9.9400       286
    10.1600       288
    10.3800       306
    10.6000       308
    10.8200       288
    11.0400       290
    11.2600       288
    11.4800       262
    11.7000       284
    11.9200       278
    12.1400       298
    12.3600       268
    12.5800       252
    12.8000       272
    13.0200       236
    13.2400       260
    13.4600       284
    13.6800       268
    13.9000       254
    14.1200       252
    14.3400       282
    14.5600       256
    14.7800       300
    15.0000       258
    15.2200       300
    15.4400       292
    15.6600       270
    15.8800       288
    16.1000       298
    16.3200       294
    16.5400       294
    16.7600       274
    16.9800       296
    17.2000       310
    17.4200       268
    17.6400       314
    17.8600       326
    18.0800       310
    18.3000       336
    18.5200       350
    18.7400       362
    18.9600       348
    19.1800       388
    19.4000       368
    19.6200       414
    19.8400       380
    20.0600       452
    20.2800       418
    20.5000       488
    20.7200       506
    20.9400       494
    21.1600       486
    21.3800       552
    21.6000       562
    21.8200       578
    22.0400       642
    22.2600       682
    22.4800       682
    22.7000       692
    22.9200       732
    23.1400       756
    23.3600       776
    23.5800       772
    23.8000       910
    24.0200       912
    24.2400       962
    24.4600       982
    24.6800      1002
    24.9000       960
    25.1200       974
    25.3400       944
    25.5600       928
    25.7800       830
    26.0000       872
    26.2200       752
    26.4400       658
    26.6600       604
    26.8800       590
    27.1000       564
    27.3200       464
    27.5400       474
    27.7600       434
    27.9800       440
    28.2000       368
    28.4200       344
    28.6400       292
    28.8600       266
    29.0800       252
    29.3000       236
    29.5200       214
    29.7400       212
    29.9600       188
    30.1800       186
    30.4000       178
    30.6200       172
    30.8400       172
    31.0600       168
    31.2800       162
    31.5000       158
    31.7200       144
    31.9400       134
    32.1600       154
    32.3800       144
    32.6000       142
    32.8200       114
    33.0400       118
    33.2600       122
    33.4800       130
    33.7000       106
    33.9200       102
    34.1400       130
    34.3600       128
    34.5800       110
    34.8000       116
    35.0200       118
    35.2400       126
    35.4600       128
    35.6800       112
    35.9000       130
    36.1200       112
    36.3400       124
    36.5600       118
    36.7800       128
    37.0000       140
    37.2200       196
    37.4400       428
    37.6600      3410
    37.8800      1882
    38.1000       246
    38.3200       174
    38.5400       150
    38.7600       150
    38.9800       132
    39.2000       166
    39.4200       144
    39.6400       144
    39.8600       174
    40.0800       154
    40.3000       150
    40.5200       166
    40.7400       178
    40.9600       188
    41.1800       202
    41.4000       218
    41.6200       220
    41.8400       216
    42.0600       244
    42.2800       244
    42.5000       242
    42.7200       272
    42.9400       252
    43.1600       280
    43.3800       288
    43.6000       330
    43.8200       888
    44.0400      1920
    44.2600       414
    44.4800       280
    44.7000       262
    44.9200       220
    45.1400       230
    45.3600       198
    45.5800       194
    45.8000       176
    46.0200       176
    46.2400       204
    46.4600       178
    46.6800       170
    46.9000       172
    47.1200       180
    47.3400       184
    47.5600       198
    47.7800       142
    48.0000       130
    48.2200       158
    48.4400       146
    48.6600       160
    48.8800       158
    49.1000       136
    49.3200       162
    49.5400       158
    49.7600       128
    49.9800       132
    50.2000       136
    50.4200       144
    50.6400       122
    50.8600       116
    51.0800       136
    51.3000       134
    51.5200       134
    51.7400       144
    51.9600       136
    52.1800       150
    52.4000       118
    52.6200       116
    52.8400       146
    53.0600       122
    53.2800       126
    53.5000       116
    53.7200       120
    53.9400       108
    54.1600       114
    54.3800        96
    54.6000        98
    54.8200        98
    55.0400       140
    55.2600       110
    55.4800       110
    55.7000       120
    55.9200        94
    56.1400        94
    56.3600        98
    56.5800        96
    56.8000        90
    57.0200       102
    57.2400       100
    57.4600       108
    57.6800        86
    57.9000        76
    58.1200        82
    58.3400       100
    58.5600        80
    58.7800        78
    59.0000        86
    59.2200        74
    59.4400        92
    59.6600        78
    59.8800        74
    60.1000        76
    60.3200        74
    60.5400        66
    60.7600        74
    60.9800        88
    61.2000        62
    61.4200        82
    61.6400        66
    61.8600        80
    62.0800        80
    62.3000        82
    62.5200        54
    62.7400        66
    62.9600        62
    63.1800        80
    63.4000        62
    63.6200        68
    63.8400        76
    64.0600        80
    64.2800       158
    64.5000        96
    64.7200        74
    64.9400        76
    65.0000        62