Folder: spectroscopy-tetracorder/sl1/usgs/library06/DESCRIPT/new_xrd_results_to_be_added/Rhonda_Driscoll_xrd_runs (part 22)

File: WS741---Heulandite.txt
/////////////////////////////////////////////////////////////////////////////////
/// Profile Data Ascii Dump (XRD)                                             ///
/////////////////////////////////////////////////////////////////////////////////

  Group     : Swayze
  Data      : WS741
  File Name : WS741.RAW

# Profile Datafile
          comment             = Heulandite
          date & time         = 08-03-13 07:23:46

# Measurement Condition
    X-ray tube
          target              = Cu
          voltage             = 40.0 (kV)
          current             = 30.0 (mA)
    Slits
          divergence slit     = 2.00000 (deg)
          scatter slit        = 2.00000 (deg)
          receiving slit      = 0.15000 (mm)
    Scanning
          drive axis          = Theta-2Theta
          scan range          =    4.000 -   65.000
          scan mode           = Continuous Scan
          scan speed          =   2.0000 (deg/min)
          sampling pitch      =   0.0200 (deg)
          preset time         =   0.60 (sec)

# Data      [ Total No. = 3051 ]
  <2Theta>   <   I   >
     4.0000       196
     4.2200       198
     4.4400       164
     4.6600       160
     4.8800       150
     5.1000       160
     5.3200       168
     5.5400       154
     5.7600       174
     5.9800       168
     6.2000       122
     6.4200       146
     6.6400       136
     6.8600       126
     7.0800       130
     7.3000       114
     7.5200       114
     7.7400       126
     7.9600       118
     8.1800       116
     8.4000       126
     8.6200       126
     8.8400       132
     9.0600       140
     9.2800       186
     9.5000       532
     9.7200      3394
     9.9400       478
    10.1600       152
    10.3800        94
    10.6000       114
    10.8200        88
    11.0400       150
    11.2600        98
    11.4800       100
    11.7000        90
    11.9200        84
    12.1400        88
    12.3600        86
    12.5800        88
    12.8000       100
    13.0200        88
    13.2400       112
    13.4600        62
    13.6800        72
    13.9000        88
    14.1200        70
    14.3400        66
    14.5600        54
    14.7800        80
    15.0000        66
    15.2200        64
    15.4400        68
    15.6600        92
    15.8800        56
    16.1000        64
    16.3200        70
    16.5400        90
    16.7600       110
    16.9800        88
    17.2000       126
    17.4200        96
    17.6400        58
    17.8600        58
    18.0800        74
    18.3000        66
    18.5200        56
    18.7400        86
    18.9600       330
    19.1800        56
    19.4000        54
    19.6200        96
    19.8400       140
    20.0600        72
    20.2800        84
    20.5000        68
    20.7200        64
    20.9400        50
    21.1600        60
    21.3800        62
    21.6000        58
    21.8200        80
    22.0400       120
    22.2600       520
    22.4800       236
    22.7000       468
    22.9200        66
    23.1400        88
    23.3600        46
    23.5800        66
    23.8000       108
    24.0200        58
    24.2400        58
    24.4600        64
    24.6800        64
    24.9000        96
    25.1200        64
    25.3400       110
    25.5600       114
    25.7800       184
    26.0000       114
    26.2200        60
    26.4400        60
    26.6600        94
    26.8800        62
    27.1000        44
    27.3200        44
    27.5400        44
    27.7600       136
    27.9800       178
    28.2000        72
    28.4200       242
    28.6400        86
    28.8600       132
    29.0800        62
    29.3000        84
    29.5200       174
    29.7400       586
    29.9600      1282
    30.1800       206
    30.4000        50
    30.6200        56
    30.8400        60
    31.0600        44
    31.2800        40
    31.5000        42
    31.7200       208
    31.9400       176
    32.1600        46
    32.3800        86
    32.6000       228
    32.8200       278
    33.0400        64
    33.2600        40
    33.4800        84
    33.7000        68
    33.9200        38
    34.1400        40
    34.3600        38
    34.5800        54
    34.8000        46
    35.0200        60
    35.2400        96
    35.4600       226
    35.6800       102
    35.9000        76
    36.1200        78
    36.3400       112
    36.5600       110
    36.7800       136
    37.0000       116
    37.2200        62
    37.4400        64
    37.6600        58
    37.8800        80
    38.1000        62
    38.3200        80
    38.5400        58
    38.7600        86
    38.9800       102
    39.2000        62
    39.4200        82
    39.6400        62
    39.8600        56
    40.0800       156
    40.3000       326
    40.5200        58
    40.7400        44
    40.9600        68
    41.1800        46
    41.4000        46
    41.6200        50
    41.8400        84
    42.0600        52
    42.2800        84
    42.5000        92
    42.7200        54
    42.9400        42
    43.1600        92
    43.3800        66
    43.6000        84
    43.8200        56
    44.0400        56
    44.2600        32
    44.4800        50
    44.7000        78
    44.9200        46
    45.1400        46
    45.3600        58
    45.5800        68
    45.8000       164
    46.0200       198
    46.2400       156
    46.4600        72
    46.6800        72
    46.9000        50
    47.1200        66
    47.3400       104
    47.5600        44
    47.7800        36
    48.0000        46
    48.2200        52
    48.4400        42
    48.6600        74
    48.8800        78
    49.1000        46
    49.3200        56
    49.5400        50
    49.7600       100
    49.9800        92
    50.2000        68
    50.4200        62
    50.6400       110
    50.8600       708
    51.0800       516
    51.3000       124
    51.5200       106
    51.7400        86
    51.9600        66
    52.1800        62
    52.4000        78
    52.6200        86
    52.8400       186
    53.0600       150
    53.2800        72
    53.5000        60
    53.7200        44
    53.9400        80
    54.1600        48
    54.3800        46
    54.6000        50
    54.8200        60
    55.0400        52
    55.2600        54
    55.4800        72
    55.7000        90
    55.9200        60
    56.1400        78
    56.3600        70
    56.5800        36
    56.8000        58
    57.0200        38
    57.2400        48
    57.4600        36
    57.6800        64
    57.9000        48
    58.1200        46
    58.3400        40
    58.5600        46
    58.7800        38
    59.0000        66
    59.2200        48
    59.4400        72
    59.6600        48
    59.8800        44
    60.1000        38
    60.3200        44
    60.5400        48
    60.7600        60
    60.9800        46
    61.2000        38
    61.4200        30
    61.6400        42
    61.8600        64
    62.0800       186
    62.3000       214
    62.5200        92
    62.7400        56
    62.9600        54
    63.1800        70
    63.4000        82
    63.6200        98
    63.8400        90
    64.0600        76
    64.2800        66
    64.5000        44
    64.7200        66
    64.9400        58
    65.0000        62

File: WS747---Scolecite.txt
/////////////////////////////////////////////////////////////////////////////////
/// Profile Data Ascii Dump (XRD)                                             ///
/////////////////////////////////////////////////////////////////////////////////

  Group     : Swayze
  Data      : WS747
  File Name : WS747.RAW

# Profile Datafile
          comment             = Scolecite
          date & time         = 08-03-13 07:54:41

# Measurement Condition
    X-ray tube
          target              = Cu
          voltage             = 40.0 (kV)
          current             = 30.0 (mA)
    Slits
          divergence slit     = 2.00000 (deg)
          scatter slit        = 2.00000 (deg)
          receiving slit      = 0.15000 (mm)
    Scanning
          drive axis          = Theta-2Theta
          scan range          =    4.000 -   65.000
          scan mode           = Continuous Scan
          scan speed          =   2.0000 (deg/min)
          sampling pitch      =   0.0200 (deg)
          preset time         =   0.60 (sec)

# Data      [ Total No. = 3051 ]
  <2Theta>   <   I   >
     4.0000       206
     4.2200       192
     4.4400       178
     4.6600       130
     4.8800       172
     5.1000       156
     5.3200       146
     5.5400       142
     5.7600       152
     5.9800       156
     6.2000       160
     6.4200       148
     6.6400       130
     6.8600       120
     7.0800       114
     7.3000        90
     7.5200       100
     7.7400       124
     7.9600       106
     8.1800       124
     8.4000       124
     8.6200       106
     8.8400       136
     9.0600       190
     9.2800       406
     9.5000      1682
     9.7200      1066
     9.9400       184
    10.1600       100
    10.3800        96
    10.6000        84
    10.8200        90
    11.0400        90
    11.2600        92
    11.4800        74
    11.7000        90
    11.9200        70
    12.1400        82
    12.3600        92
    12.5800        84
    12.8000        84
    13.0200       108
    13.2400       266
    13.4600        80
    13.6800        88
    13.9000        56
    14.1200        80
    14.3400        62
    14.5600        72
    14.7800        76
    15.0000       112
    15.2200        74
    15.4400        52
    15.6600        58
    15.8800        64
    16.1000        80
    16.3200       102
    16.5400       136
    16.7600        70
    16.9800        70
    17.2000        56
    17.4200        46
    17.6400        52
    17.8600        52
    18.0800        80
    18.3000        64
    18.5200       218
    18.7400       168
    18.9600       488
    19.1800       158
    19.4000       326
    19.6200        84
    19.8400       118
    20.0600       130
    20.2800        74
    20.5000       104
    20.7200       474
    20.9400       222
    21.1600       114
    21.3800       108
    21.6000       424
    21.8200      1252
    22.0400       258
    22.2600        78
    22.4800        60
    22.7000        56
    22.9200        48
    23.1400        60
    23.3600        58
    23.5800        94
    23.8000       102
    24.0200        56
    24.2400        60
    24.4600        52
    24.6800        46
    24.9000        50
    25.1200        56
    25.3400       116
    25.5600        78
    25.7800        78
    26.0000       158
    26.2200       236
    26.4400        64
    26.6600        82
    26.8800        60
    27.1000        46
    27.3200        52
    27.5400        80
    27.7600       196
    27.9800       290
    28.2000        86
    28.4200        72
    28.6400       142
    28.8600       108
    29.0800       410
    29.3000      1558
    29.5200       304
    29.7400       252
    29.9600       116
    30.1800        64
    30.4000       158
    30.6200       140
    30.8400       244
    31.0600       166
    31.2800       120
    31.5000        98
    31.7200       100
    31.9400       122
    32.1600       386
    32.3800        56
    32.6000        54
    32.8200        94
    33.0400        80
    33.2600        58
    33.4800        48
    33.7000        60
    33.9200        52
    34.1400        90
    34.3600       106
    34.5800       144
    34.8000       156
    35.0200       104
    35.2400        98
    35.4600        82
    35.6800       104
    35.9000       114
    36.1200        98
    36.3400        86
    36.5600        74
    36.7800        62
    37.0000        48
    37.2200        36
    37.4400        50
    37.6600        54
    37.8800        60
    38.1000       118
    38.3200        56
    38.5400        58
    38.7600        70
    38.9800        64
    39.2000        56
    39.4200        52
    39.6400        80
    39.8600        58
    40.0800        76
    40.3000        50
    40.5200        86
    40.7400       294
    40.9600        96
    41.1800        44
    41.4000        70
    41.6200       100
    41.8400        54
    42.0600        50
    42.2800        54
    42.5000        66
    42.7200        72
    42.9400        90
    43.1600        46
    43.3800       244
    43.6000       102
    43.8200       108
    44.0400        90
    44.2600       120
    44.4800       118
    44.7000        76
    44.9200        42
    45.1400        56
    45.3600        60
    45.5800        50
    45.8000        38
    46.0200        46
    46.2400        50
    46.4600        54
    46.6800        52
    46.9000        38
    47.1200        32
    47.3400        46
    47.5600        72
    47.7800       120
    48.0000        74
    48.2200        56
    48.4400        60
    48.6600        90
    48.8800        96
    49.1000        84
    49.3200        60
    49.5400       114
    49.7600       494
    49.9800       614
    50.2000       170
    50.4200       100
    50.6400        74
    50.8600        70
    51.0800        94
    51.3000        84
    51.5200        64
    51.7400        42
    51.9600        72
    52.1800        68
    52.4000        64
    52.6200        90
    52.8400       100
    53.0600        58
    53.2800        42
    53.5000        34
    53.7200        54
    53.9400        54
    54.1600        72
    54.3800        46
    54.6000        44
    54.8200        70
    55.0400        74
    55.2600        64
    55.4800        38
    55.7000        58
    55.9200       130
    56.1400        68
    56.3600        46
    56.5800        64
    56.8000        72
    57.0200        72
    57.2400        70
    57.4600        58
    57.6800       134
    57.9000       158
    58.1200       112
    58.3400        62
    58.5600        52
    58.7800        88
    59.0000        56
    59.2200       110
    59.4400       122
    59.6600        36
    59.8800        48
    60.1000        28
    60.3200        44
    60.5400        24
    60.7600        60
    60.9800        66
    61.2000        38
    61.4200        46
    61.6400        50
    61.8600        78
    62.0800        42
    62.3000        42
    62.5200        46
    62.7400        44
    62.9600        60
    63.1800        54
    63.4000        56
    63.6200        46
    63.8400        50
    64.0600        36
    64.2800        70
    64.5000        56
    64.7200        72
    64.9400        50
    65.0000        46

File: WS749---Stilbite.txt
/////////////////////////////////////////////////////////////////////////////////
/// Profile Data Ascii Dump (XRD)                                             ///
/////////////////////////////////////////////////////////////////////////////////

  Group     : Swayze
  Data      : WS749
  File Name : WS749.RAW

# Profile Datafile
          comment             = Stilbite
          date & time         = 08-03-14 05:53:58

# Measurement Condition
    X-ray tube
          target              = Cu
          voltage             = 40.0 (kV)
          current             = 30.0 (mA)
    Slits
          divergence slit     = 2.00000 (deg)
          scatter slit        = 2.00000 (deg)
          receiving slit      = 0.15000 (mm)
    Scanning
          drive axis          = Theta-2Theta
          scan range          =    4.000 -   65.000
          scan mode           = Continuous Scan
          scan speed          =   2.0000 (deg/min)
          sampling pitch      =   0.0200 (deg)
          preset time         =   0.60 (sec)

# Data      [ Total No. = 3051 ]
  <2Theta>   <   I   >
     4.0000       192
     4.2200       186
     4.4400       194
     4.6600       156
     4.8800       162
     5.1000       200
     5.3200       166
     5.5400       170
     5.7600       174
     5.9800       164
     6.2000       160
     6.4200       144
     6.6400       118
     6.8600       134
     7.0800       126
     7.3000       118
     7.5200       128
     7.7400       112
     7.9600       128
     8.1800       132
     8.4000       128
     8.6200       152
     8.8400       162
     9.0600       168
     9.2800       404
     9.5000      1396
     9.7200      5898
     9.9400       630
    10.1600       134
    10.3800       130
    10.6000       106
    10.8200       104
    11.0400       114
    11.2600       110
    11.4800       106
    11.7000        86
    11.9200       104
    12.1400       102
    12.3600        98
    12.5800        70
    12.8000        80
    13.0200        88
    13.2400        78
    13.4600        76
    13.6800        90
    13.9000        84
    14.1200        66
    14.3400        70
    14.5600        68
    14.7800        84
    15.0000        74
    15.2200        74
    15.4400        66
    15.6600        76
    15.8800        68
    16.1000        76
    16.3200        68
    16.5400       106
    16.7600        76
    16.9800        72
    17.2000        62
    17.4200        42
    17.6400        54
    17.8600        68
    18.0800        64
    18.3000        68
    18.5200        76
    18.7400       104
    18.9600       232
    19.1800       212
    19.4000       746
    19.6200        94
    19.8400       100
    20.0600        70
    20.2800        64
    20.5000        82
    20.7200       140
    20.9400        58
    21.1600        74
    21.3800       112
    21.6000       294
    21.8200      2414
    22.0400       222
    22.2600       130
    22.4800        56
    22.7000        48
    22.9200        48
    23.1400        58
    23.3600        72
    23.5800        68
    23.8000        88
    24.0200        88
    24.2400        56
    24.4600        60
    24.6800        38
    24.9000        56
    25.1200        48
    25.3400        80
    25.5600       130
    25.7800        66
    26.0000       122
    26.2200       254
    26.4400       210
    26.6600        50
    26.8800        46
    27.1000        58
    27.3200        50
    27.5400        58
    27.7600       120
    27.9800       192
    28.2000        90
    28.4200        72
    28.6400       100
    28.8600       100
    29.0800       318
    29.3000      2380
    29.5200       490
    29.7400       244
    29.9600       164
    30.1800       178
    30.4000        56
    30.6200        62
    30.8400        88
    31.0600       190
    31.2800        72
    31.5000        58
    31.7200       126
    31.9400       162
    32.1600       584
    32.3800        68
    32.6000        74
    32.8200       132
    33.0400        48
    33.2600        60
    33.4800        62
    33.7000        66
    33.9200        60
    34.1400        72
    34.3600        78
    34.5800       132
    34.8000       138
    35.0200       162
    35.2400       140
    35.4600       116
    35.6800       256
    35.9000        68
    36.1200        96
    36.3400        98
    36.5600        70
    36.7800        94
    37.0000        54
    37.2200        46
    37.4400        46
    37.6600        44
    37.8800        60
    38.1000       204
    38.3200       138
    38.5400        50
    38.7600        50
    38.9800        68
    39.2000        58
    39.4200        64
    39.6400        56
    39.8600        54
    40.0800        68
    40.3000        90
    40.5200        94
    40.7400        84
    40.9600        56
    41.1800        64
    41.4000        58
    41.6200        80
    41.8400        58
    42.0600        42
    42.2800        60
    42.5000       116
    42.7200        80
    42.9400       128
    43.1600        60
    43.3800        92
    43.6000        90
    43.8200       124
    44.0400        80
    44.2600        66
    44.4800       182
    44.7000       106
    44.9200        46
    45.1400        56
    45.3600        98
    45.5800        52
    45.8000        66
    46.0200        36
    46.2400        38
    46.4600        50
    46.6800        54
    46.9000        52
    47.1200        44
    47.3400        48
    47.5600        72
    47.7800       174
    48.0000        76
    48.2200        56
    48.4400        96
    48.6600        66
    48.8800        58
    49.1000        56
    49.3200       116
    49.5400       162
    49.7600      1310
    49.9800      1130
    50.2000       122
    50.4200       116
    50.6400        60
    50.8600       122
    51.0800       100
    51.3000       156
    51.5200        78
    51.7400        40
    51.9600        44
    52.1800        62
    52.4000        50
    52.6200        68
    52.8400       142
    53.0600        72
    53.2800        50
    53.5000        62
    53.7200        38
    53.9400        58
    54.1600        52
    54.3800        56
    54.6000        64
    54.8200        68
    55.0400        38
    55.2600        52
    55.4800        54
    55.7000        66
    55.9200       100
    56.1400        68
    56.3600        40
    56.5800        62
    56.8000        40
    57.0200        64
    57.2400        56
    57.4600        62
    57.6800       128
    57.9000       148
    58.1200       108
    58.3400        76
    58.5600        68
    58.7800        56
    59.0000        84
    59.2200       122
    59.4400       154
    59.6600        90
    59.8800        68
    60.1000        38
    60.3200        52
    60.5400        50
    60.7600        96
    60.9800        58
    61.2000        54
    61.4200        46
    61.6400        50
    61.8600        88
    62.0800        76
    62.3000        52
    62.5200        60
    62.7400        54
    62.9600        46
    63.1800        58
    63.4000        76
    63.6200        36
    63.8400        58
    64.0600        36
    64.2800        36
    64.5000       102
    64.7200       124
    64.9400        72
    65.0000        72