Folder: spectroscopy-tetracorder/sl1/usgs/library06/DESCRIPT/new_xrd_results_to_be_added/Rhonda_Driscoll_xrd_runs (part 4)

File: GDS38B---Scapolite.txt
/////////////////////////////////////////////////////////////////////////////////
/// Profile Data Ascii Dump (XRD)                                             ///
/////////////////////////////////////////////////////////////////////////////////

  Group     : Swayze
  Data      : GDS38B
  File Name : GDS38B.RAW

# Profile Datafile
          comment             = Scapolite
          date & time         = 08-03-24 06:16:03

# Measurement Condition
    X-ray tube
          target              = Cu
          voltage             = 40.0 (kV)
          current             = 30.0 (mA)
    Slits
          divergence slit     = 2.00000 (deg)
          scatter slit        = 2.00000 (deg)
          receiving slit      = 0.15000 (mm)
    Scanning
          drive axis          = Theta-2Theta
          scan range          =    4.000 -   65.000
          scan mode           = Continuous Scan
          scan speed          =   2.0000 (deg/min)
          sampling pitch      =   0.0200 (deg)
          preset time         =   0.60 (sec)

# Data      [ Total No. = 3051 ]
  <2Theta>   <   I   >
     4.0000       200
     4.2200       184
     4.4400       166
     4.6600       166
     4.8800       156
     5.1000       156
     5.3200       136
     5.5400       166
     5.7600       130
     5.9800       144
     6.2000       150
     6.4200       172
     6.6400       120
     6.8600       128
     7.0800       130
     7.3000       122
     7.5200       124
     7.7400       116
     7.9600       122
     8.1800       132
     8.4000       126
     8.6200       124
     8.8400       130
     9.0600       124
     9.2800       122
     9.5000       120
     9.7200       106
     9.9400       118
    10.1600       148
    10.3800       112
    10.6000        96
    10.8200       100
    11.0400       104
    11.2600       100
    11.4800        90
    11.7000       100
    11.9200       102
    12.1400        82
    12.3600        94
    12.5800        86
    12.8000        88
    13.0200        76
    13.2400        74
    13.4600        88
    13.6800       198
    13.9000        64
    14.1200        64
    14.3400        90
    14.5600       208
    14.7800        76
    15.0000        68
    15.2200        58
    15.4400        62
    15.6600        66
    15.8800        68
    16.1000        68
    16.3200        50
    16.5400        70
    16.7600        58
    16.9800        56
    17.2000        54
    17.4200        62
    17.6400        64
    17.8600        72
    18.0800        72
    18.3000        60
    18.5200        40
    18.7400        68
    18.9600        46
    19.1800        64
    19.4000        56
    19.6200        64
    19.8400        60
    20.0600       106
    20.2800        50
    20.5000        64
    20.7200       154
    20.9400        50
    21.1600        50
    21.3800        54
    21.6000        50
    21.8200        42
    22.0400        48
    22.2600        36
    22.4800        62
    22.7000        46
    22.9200       106
    23.1400       626
    23.3600       164
    23.5800        68
    23.8000        56
    24.0200        62
    24.2400        44
    24.4600        56
    24.6800        88
    24.9000       366
    25.1200        80
    25.3400       222
    25.5600      1728
    25.7800       144
    26.0000        62
    26.2200        56
    26.4400        68
    26.6600        36
    26.8800        44
    27.1000        46
    27.3200        44
    27.5400        38
    27.7600        52
    27.9800        52
    28.2000        54
    28.4200        42
    28.6400        64
    28.8600       188
    29.0800       808
    29.3000       142
    29.5200      1832
    29.7400        68
    29.9600        46
    30.1800        42
    30.4000        46
    30.6200        40
    30.8400        32
    31.0600        30
    31.2800       126
    31.5000       130
    31.7200        48
    31.9400        44
    32.1600        50
    32.3800        36
    32.6000       268
    32.8200       142
    33.0400       344
    33.2600       600
    33.4800        56
    33.7000        28
    33.9200        40
    34.1400        38
    34.3600        32
    34.5800        30
    34.8000        36
    35.0200        44
    35.2400        38
    35.4600        38
    35.6800        36
    35.9000        28
    36.1200        50
    36.3400        24
    36.5600        20
    36.7800        46
    37.0000        28
    37.2200        34
    37.4400        32
    37.6600        32
    37.8800        80
    38.1000        36
    38.3200        26
    38.5400        40
    38.7600        48
    38.9800       256
    39.2000        84
    39.4200        70
    39.6400        46
    39.8600        30
    40.0800        40
    40.3000        40
    40.5200        28
    40.7400        52
    40.9600       114
    41.1800        48
    41.4000        24
    41.6200        40
    41.8400       142
    42.0600       402
    42.2800        86
    42.5000        40
    42.7200        26
    42.9400        46
    43.1600        40
    43.3800        48
    43.6000       214
    43.8200        52
    44.0400        48
    44.2600        28
    44.4800        40
    44.7000       112
    44.9200       154
    45.1400        84
    45.3600        28
    45.5800        34
    45.8000        40
    46.0200        36
    46.2400        34
    46.4600        30
    46.6800        36
    46.9000        30
    47.1200       112
    47.3400       358
    47.5600       440
    47.7800       230
    48.0000       114
    48.2200        38
    48.4400        24
    48.6600        36
    48.8800        24
    49.1000        34
    49.3200        26
    49.5400        30
    49.7600        86
    49.9800        74
    50.2000       140
    50.4200        36
    50.6400        18
    50.8600        26
    51.0800        30
    51.3000        36
    51.5200        28
    51.7400        26
    51.9600        38
    52.1800       104
    52.4000        60
    52.6200        34
    52.8400        36
    53.0600        42
    53.2800        42
    53.5000       222
    53.7200       116
    53.9400        44
    54.1600        28
    54.3800        32
    54.6000        68
    54.8200        58
    55.0400        42
    55.2600        40
    55.4800        24
    55.7000        26
    55.9200        30
    56.1400        40
    56.3600        36
    56.5800        40
    56.8000        62
    57.0200        36
    57.2400       120
    57.4600        58
    57.6800        36
    57.9000        26
    58.1200        60
    58.3400        36
    58.5600        24
    58.7800        40
    59.0000       124
    59.2200       146
    59.4400        68
    59.6600        48
    59.8800        28
    60.1000        32
    60.3200        30
    60.5400        36
    60.7600        22
    60.9800        32
    61.2000       132
    61.4200        56
    61.6400        30
    61.8600        30
    62.0800        42
    62.3000        28
    62.5200        36
    62.7400        54
    62.9600        48
    63.1800       106
    63.4000       128
    63.6200       160
    63.8400        48
    64.0600        48
    64.2800        32
    64.5000        30
    64.7200        34
    64.9400        28
    65.0000        34

File: GDS39B---Scapolite-grp..txt
/////////////////////////////////////////////////////////////////////////////////
/// Profile Data Ascii Dump (XRD)                                             ///
/////////////////////////////////////////////////////////////////////////////////

  Group     : Swayze
  Data      : GDS39B
  File Name : GDS39B.RAW

# Profile Datafile
          comment             = Scapolite grp.
          date & time         = 08-03-25 07:55:02

# Measurement Condition
    X-ray tube
          target              = Cu
          voltage             = 40.0 (kV)
          current             = 30.0 (mA)
    Slits
          divergence slit     = 2.00000 (deg)
          scatter slit        = 2.00000 (deg)
          receiving slit      = 0.15000 (mm)
    Scanning
          drive axis          = Theta-2Theta
          scan range          =    4.000 -   65.000
          scan mode           = Continuous Scan
          scan speed          =   2.0000 (deg/min)
          sampling pitch      =   0.0200 (deg)
          preset time         =   0.60 (sec)

# Data      [ Total No. = 3051 ]
  <2Theta>   <   I   >
     4.0000       170
     4.2200       162
     4.4400       182
     4.6600       158
     4.8800       146
     5.1000       160
     5.3200       144
     5.5400       196
     5.7600       184
     5.9800       160
     6.2000       140
     6.4200       128
     6.6400       128
     6.8600       130
     7.0800       114
     7.3000       102
     7.5200        98
     7.7400       120
     7.9600       116
     8.1800       116
     8.4000       104
     8.6200       106
     8.8400       100
     9.0600       108
     9.2800       106
     9.5000        96
     9.7200        98
     9.9400       130
    10.1600       112
    10.3800       108
    10.6000       108
    10.8200       104
    11.0400        86
    11.2600       102
    11.4800        84
    11.7000        96
    11.9200        90
    12.1400        80
    12.3600        76
    12.5800        84
    12.8000        74
    13.0200        74
    13.2400        76
    13.4600        94
    13.6800       176
    13.9000        58
    14.1200        84
    14.3400        96
    14.5600       212
    14.7800        52
    15.0000        62
    15.2200        60
    15.4400        68
    15.6600        60
    15.8800        50
    16.1000        68
    16.3200        56
    16.5400        50
    16.7600        50
    16.9800        58
    17.2000        56
    17.4200        64
    17.6400        48
    17.8600        58
    18.0800        48
    18.3000        52
    18.5200        50
    18.7400        64
    18.9600        52
    19.1800        48
    19.4000        52
    19.6200        60
    19.8400        56
    20.0600       100
    20.2800        40
    20.5000        60
    20.7200       202
    20.9400        56
    21.1600        38
    21.3800        48
    21.6000        44
    21.8200        60
    22.0400        48
    22.2600        48
    22.4800        48
    22.7000        46
    22.9200        74
    23.1400       664
    23.3600        76
    23.5800        62
    23.8000        60
    24.0200        42
    24.2400        44
    24.4600        70
    24.6800        84
    24.9000       856
    25.1200        66
    25.3400       230
    25.5600      1576
    25.7800       114
    26.0000        54
    26.2200        40
    26.4400        40
    26.6600        44
    26.8800        42
    27.1000        34
    27.3200        30
    27.5400        42
    27.7600        30
    27.9800        38
    28.2000        40
    28.4200        36
    28.6400        68
    28.8600       228
    29.0800       876
    29.3000       160
    29.5200       520
    29.7400        46
    29.9600        36
    30.1800        32
    30.4000        36
    30.6200        40
    30.8400        28
    31.0600        44
    31.2800       154
    31.5000        54
    31.7200        32
    31.9400        34
    32.1600        26
    32.3800        48
    32.6000       202
    32.8200        74
    33.0400       254
    33.2600       226
    33.4800        36
    33.7000        26
    33.9200        18
    34.1400        30
    34.3600        22
    34.5800        28
    34.8000        34
    35.0200        36
    35.2400        34
    35.4600        34
    35.6800        30
    35.9000        30
    36.1200        32
    36.3400        30
    36.5600        28
    36.7800        16
    37.0000        28
    37.2200        32
    37.4400        24
    37.6600        32
    37.8800       132
    38.1000        44
    38.3200        32
    38.5400        26
    38.7600        44
    38.9800       218
    39.2000        72
    39.4200        56
    39.6400        36
    39.8600        36
    40.0800        22
    40.3000        40
    40.5200        44
    40.7400        40
    40.9600        60
    41.1800        30
    41.4000        30
    41.6200        46
    41.8400       214
    42.0600       200
    42.2800        54
    42.5000        30
    42.7200        38
    42.9400        40
    43.1600        32
    43.3800        34
    43.6000        98
    43.8200        34
    44.0400        34
    44.2600        30
    44.4800        46
    44.7000        92
    44.9200       152
    45.1400        64
    45.3600        28
    45.5800        34
    45.8000        32
    46.0200        20
    46.2400        34
    46.4600        24
    46.6800        58
    46.9000        44
    47.1200       196
    47.3400       702
    47.5600       428
    47.7800       240
    48.0000        76
    48.2200        40
    48.4400        42
    48.6600        34
    48.8800        30
    49.1000        32
    49.3200        34
    49.5400        30
    49.7600        54
    49.9800        88
    50.2000        68
    50.4200        30
    50.6400        26
    50.8600        32
    51.0800        30
    51.3000        22
    51.5200        24
    51.7400        36
    51.9600        34
    52.1800        88
    52.4000        46
    52.6200        58
    52.8400        38
    53.0600        40
    53.2800        40
    53.5000       114
    53.7200        52
    53.9400        32
    54.1600        26
    54.3800        34
    54.6000        60
    54.8200        38
    55.0400        24
    55.2600        26
    55.4800        30
    55.7000        32
    55.9200        30
    56.1400        24
    56.3600        32
    56.5800        48
    56.8000        86
    57.0200        46
    57.2400       114
    57.4600        42
    57.6800        22
    57.9000        32
    58.1200        24
    58.3400        26
    58.5600        32
    58.7800        28
    59.0000       194
    59.2200       114
    59.4400       102
    59.6600        38
    59.8800        30
    60.1000        34
    60.3200        26
    60.5400        20
    60.7600        32
    60.9800        50
    61.2000        96
    61.4200        36
    61.6400        30
    61.8600        24
    62.0800        44
    62.3000        26
    62.5200        72
    62.7400        86
    62.9600        38
    63.1800        80
    63.4000       182
    63.6200       146
    63.8400        38
    64.0600        32
    64.2800        32
    64.5000        22
    64.7200        24
    64.9400        32
    65.0000        40

File: GDS40-Scapolite-grp.txt
/////////////////////////////////////////////////////////////////////////////////
/// Profile Data Ascii Dump (XRD)                                             ///
/////////////////////////////////////////////////////////////////////////////////

  Group     : Swayze
  Data      : GDS40
  File Name : GDS40.RAW

# Profile Datafile
          comment             = Scapolite grp
          date & time         = 08-04-29 08:14:53

# Measurement Condition
    X-ray tube
          target              = Cu
          voltage             = 40.0 (kV)
          current             = 30.0 (mA)
    Slits
          divergence slit     = 2.00000 (deg)
          scatter slit        = 2.00000 (deg)
          receiving slit      = 0.15000 (mm)
    Scanning
          drive axis          = Theta-2Theta
          scan range          =    4.000 -   65.000
          scan mode           = Continuous Scan
          scan speed          =   2.0000 (deg/min)
          sampling pitch      =   0.0200 (deg)
          preset time         =   0.60 (sec)

# Data      [ Total No. = 3051 ]
  <2Theta>   <   I   >
     4.0000       206
     4.2200       176
     4.4400       150
     4.6600       174
     4.8800       146
     5.1000       154
     5.3200       150
     5.5400       142
     5.7600       152
     5.9800       184
     6.2000       140
     6.4200       132
     6.6400       144
     6.8600       148
     7.0800       102
     7.3000       124
     7.5200       122
     7.7400       132
     7.9600       100
     8.1800       104
     8.4000       124
     8.6200       134
     8.8400       102
     9.0600       116
     9.2800       118
     9.5000       130
     9.7200       130
     9.9400       122
    10.1600       124
    10.3800        96
    10.6000        86
    10.8200        88
    11.0400        90
    11.2600        84
    11.4800        78
    11.7000        86
    11.9200        90
    12.1400        80
    12.3600        76
    12.5800        88
    12.8000        78
    13.0200        80
    13.2400        76
    13.4600        70
    13.6800        92
    13.9000        88
    14.1200        54
    14.3400        80
    14.5600       184
    14.7800        78
    15.0000        58
    15.2200        54
    15.4400        56
    15.6600        42
    15.8800        56
    16.1000        70
    16.3200        60
    16.5400        46
    16.7600        52
    16.9800        38
    17.2000        46
    17.4200        46
    17.6400        54
    17.8600        52
    18.0800        66
    18.3000        48
    18.5200        44
    18.7400        66
    18.9600        54
    19.1800        58
    19.4000        46
    19.6200        48
    19.8400        48
    20.0600        86
    20.2800        44
    20.5000        48
    20.7200        96
    20.9400        52
    21.1600        46
    21.3800        56
    21.6000        42
    21.8200        38
    22.0400        38
    22.2600        46
    22.4800        38
    22.7000        40
    22.9200        78
    23.1400       366
    23.3600        94
    23.5800        42
    23.8000        50
    24.0200        44
    24.2400        42
    24.4600        42
    24.6800        56
    24.9000       234
    25.1200        74
    25.3400       114
    25.5600       724
    25.7800       970
    26.0000        56
    26.2200        46
    26.4400        46
    26.6600        36
    26.8800        36
    27.1000        40
    27.3200        36
    27.5400        36
    27.7600        46
    27.9800        38
    28.2000        48
    28.4200        46
    28.6400        64
    28.8600       222
    29.0800       690
    29.3000       322
    29.5200       562
    29.7400        40
    29.9600        40
    30.1800        28
    30.4000        48
    30.6200        32
    30.8400        30
    31.0600        38
    31.2800        96
    31.5000        76
    31.7200        32
    31.9400        28
    32.1600        34
    32.3800        40
    32.6000       206
    32.8200       108
    33.0400       282
    33.2600       426
    33.4800        54
    33.7000        38
    33.9200        34
    34.1400        26
    34.3600        32
    34.5800        32
    34.8000        36
    35.0200        34
    35.2400        28
    35.4600        38
    35.6800        48
    35.9000        38
    36.1200        22
    36.3400        32
    36.5600        20
    36.7800        28
    37.0000        30
    37.2200        24
    37.4400        36
    37.6600        36
    37.8800        62
    38.1000        34
    38.3200        34
    38.5400        26
    38.7600        48
    38.9800       214
    39.2000        48
    39.4200        42
    39.6400        44
    39.8600        18
    40.0800        34
    40.3000        40
    40.5200        30
    40.7400        30
    40.9600        70
    41.1800        34
    41.4000        42
    41.6200        34
    41.8400       116
    42.0600       342
    42.2800       106
    42.5000        30
    42.7200        24
    42.9400        24
    43.1600        34
    43.3800        62
    43.6000        78
    43.8200        24
    44.0400        20
    44.2600        26
    44.4800        30
    44.7000        64
    44.9200       184
    45.1400        68
    45.3600        36
    45.5800        44
    45.8000        24
    46.0200        24
    46.2400        24
    46.4600        32
    46.6800        36
    46.9000        52
    47.1200       350
    47.3400       308
    47.5600       200
    47.7800        70
    48.0000       222
    48.2200        52
    48.4400        30
    48.6600        38
    48.8800        42
    49.1000        20
    49.3200        42
    49.5400        80
    49.7600        74
    49.9800        88
    50.2000        44
    50.4200        28
    50.6400        40
    50.8600        32
    51.0800        34
    51.3000        30
    51.5200        32
    51.7400        24
    51.9600        54
    52.1800        70
    52.4000        80
    52.6200        42
    52.8400        32
    53.0600        20
    53.2800        46
    53.5000       188
    53.7200        48
    53.9400        24
    54.1600        26
    54.3800        42
    54.6000        86
    54.8200        44
    55.0400        26
    55.2600        24
    55.4800        24
    55.7000        30
    55.9200        30
    56.1400        28
    56.3600        26
    56.5800        88
    56.8000        36
    57.0200        22
    57.2400       126
    57.4600        64
    57.6800        26
    57.9000        70
    58.1200        30
    58.3400        34
    58.5600        30
    58.7800        32
    59.0000       164
    59.2200        80
    59.4400        40
    59.6600        32
    59.8800        26
    60.1000        24
    60.3200        38
    60.5400        32
    60.7600        20
    60.9800        44
    61.2000        82
    61.4200        40
    61.6400        36
    61.8600        30
    62.0800        34
    62.3000        42
    62.5200        38
    62.7400        48
    62.9600        52
    63.1800        86
    63.4000       184
    63.6200       104
    63.8400        50
    64.0600        22
    64.2800        32
    64.5000        26
    64.7200        28
    64.9400        28
    65.0000        28