Folder: spectroscopy-tetracorder/sl1/usgs/library06/DESCRIPT/new_xrd_results_to_be_added/Rhonda_Driscoll_xrd_runs (part 14)

File: GDS822.txt
/////////////////////////////////////////////////////////////////////////////////
/// Profile Data Ascii Dump (XRD)                                             ///
/////////////////////////////////////////////////////////////////////////////////

  Group     : Swayze
  Data      : GDS822
  File Name : GDS822.RAW

# Profile Datafile
          comment             =
          date & time         = 08-03-11 06:36:46

# Measurement Condition
    X-ray tube
          target              = Cu
          voltage             = 40.0 (kV)
          current             = 30.0 (mA)
    Slits
          divergence slit     = 2.00000 (deg)
          scatter slit        = 2.00000 (deg)
          receiving slit      = 0.15000 (mm)
    Scanning
          drive axis          = Theta-2Theta
          scan range          =    4.000 -   65.000
          scan mode           = Continuous Scan
          scan speed          =   2.0000 (deg/min)
          sampling pitch      =   0.0200 (deg)
          preset time         =   0.60 (sec)

# Data      [ Total No. = 3051 ]
  <2Theta>   <   I   >
     4.0000       170
     4.2200       174
     4.4400       192
     4.6600       168
     4.8800       166
     5.1000       152
     5.3200       168
     5.5400       164
     5.7600       144
     5.9800       124
     6.2000       176
     6.4200       144
     6.6400       130
     6.8600       136
     7.0800       132
     7.3000       138
     7.5200       120
     7.7400       132
     7.9600       114
     8.1800       132
     8.4000       122
     8.6200       126
     8.8400       130
     9.0600       110
     9.2800        98
     9.5000       106
     9.7200       120
     9.9400        96
    10.1600       104
    10.3800       100
    10.6000        92
    10.8200        96
    11.0400        98
    11.2600        80
    11.4800        78
    11.7000        94
    11.9200        92
    12.1400        74
    12.3600        88
    12.5800        76
    12.8000        82
    13.0200        78
    13.2400        80
    13.4600        76
    13.6800        68
    13.9000        60
    14.1200        64
    14.3400        52
    14.5600        68
    14.7800        58
    15.0000        64
    15.2200        74
    15.4400       128
    15.6600        74
    15.8800        54
    16.1000        64
    16.3200        40
    16.5400        52
    16.7600        64
    16.9800        72
    17.2000        74
    17.4200        76
    17.6400       204
    17.8600       762
    18.0800       140
    18.3000        68
    18.5200        40
    18.7400        50
    18.9600        60
    19.1800        46
    19.4000        56
    19.6200        52
    19.8400        46
    20.0600        44
    20.2800        52
    20.5000        44
    20.7200        50
    20.9400        32
    21.1600        50
    21.3800        52
    21.6000        44
    21.8200        58
    22.0400        34
    22.2600        42
    22.4800        38
    22.7000        70
    22.9200        60
    23.1400        48
    23.3600        44
    23.5800        50
    23.8000        36
    24.0200        42
    24.2400        62
    24.4600        58
    24.6800        72
    24.9000       128
    25.1200       678
    25.3400      4450
    25.5600       206
    25.7800        72
    26.0000        46
    26.2200        38
    26.4400        42
    26.6600        48
    26.8800        44
    27.1000        46
    27.3200        34
    27.5400        40
    27.7600        38
    27.9800        38
    28.2000        34
    28.4200        38
    28.6400        36
    28.8600        50
    29.0800        48
    29.3000        46
    29.5200       128
    29.7400      1022
    29.9600       878
    30.1800       236
    30.4000        70
    30.6200        48
    30.8400        36
    31.0600        60
    31.2800       234
    31.5000        48
    31.7200        78
    31.9400        86
    32.1600        28
    32.3800        22
    32.6000        18
    32.8200        34
    33.0400        32
    33.2600        36
    33.4800        30
    33.7000        28
    33.9200        22
    34.1400        30
    34.3600        16
    34.5800        22
    34.8000        36
    35.0200        34
    35.2400        30
    35.4600        44
    35.6800        30
    35.9000        40
    36.1200       286
    36.3400        82
    36.5600        32
    36.7800        30
    37.0000        38
    37.2200        14
    37.4400        24
    37.6600        26
    37.8800        26
    38.1000        30
    38.3200        50
    38.5400       158
    38.7600        44
    38.9800        30
    39.2000        26
    39.4200        68
    39.6400       234
    39.8600       120
    40.0800        94
    40.3000       104
    40.5200       124
    40.7400       210
    40.9600        62
    41.1800       176
    41.4000        42
    41.6200        44
    41.8400        18
    42.0600        32
    42.2800        22
    42.5000        26
    42.7200        26
    42.9400        40
    43.1600       148
    43.3800        94
    43.6000        34
    43.8200        22
    44.0400        26
    44.2600        28
    44.4800        26
    44.7000        30
    44.9200        20
    45.1400        28
    45.3600        52
    45.5800        32
    45.8000        18
    46.0200        28
    46.2400        20
    46.4600        26
    46.6800        56
    46.9000        40
    47.1200        32
    47.3400        56
    47.5600       300
    47.7800       302
    48.0000       116
    48.2200        56
    48.4400        94
    48.6600       136
    48.8800        74
    49.1000        98
    49.3200        38
    49.5400        32
    49.7600        34
    49.9800        32
    50.2000        24
    50.4200        26
    50.6400        40
    50.8600        20
    51.0800        20
    51.3000        24
    51.5200        26
    51.7400        36
    51.9600       198
    52.1800       650
    52.4000       138
    52.6200        32
    52.8400        34
    53.0600        36
    53.2800        24
    53.5000        34
    53.7200        18
    53.9400        26
    54.1600        28
    54.3800        24
    54.6000        26
    54.8200        42
    55.0400        16
    55.2600        30
    55.4800       112
    55.7000       172
    55.9200        60
    56.1400        40
    56.3600        24
    56.5800        14
    56.8000        22
    57.0200        28
    57.2400        24
    57.4600        40
    57.6800        82
    57.9000        38
    58.1200        24
    58.3400        22
    58.5600        38
    58.7800       130
    59.0000       160
    59.2200        42
    59.4400        42
    59.6600        32
    59.8800        38
    60.1000        26
    60.3200        34
    60.5400        58
    60.7600        36
    60.9800        46
    61.2000        54
    61.4200        58
    61.6400        32
    61.8600        60
    62.0800       192
    62.3000       186
    62.5200        80
    62.7400        82
    62.9600        64
    63.1800        66
    63.4000        58
    63.6200        42
    63.8400        40
    64.0600        28
    64.2800        38
    64.5000        22
    64.7200        30
    64.9400        20
    65.0000        24

File: LC-5-250C-30hrs.txt
/////////////////////////////////////////////////////////////////////////////////
/// Profile Data Ascii Dump (XRD)                                             ///
/////////////////////////////////////////////////////////////////////////////////

  Group     : Swayze
  Data      : LC-5
  File Name : LC-5.RAW

# Profile Datafile
          comment             = Alunite-250C-30hrs
          date & time         = 08-04-01 07:18:54

# Measurement Condition
    X-ray tube
          target              = Cu
          voltage             = 40.0 (kV)
          current             = 30.0 (mA)
    Slits
          divergence slit     = 2.00000 (deg)
          scatter slit        = 2.00000 (deg)
          receiving slit      = 0.15000 (mm)
    Scanning
          drive axis          = Theta-2Theta
          scan range          =    4.000 -   65.000
          scan mode           = Continuous Scan
          scan speed          =   2.0000 (deg/min)
          sampling pitch      =   0.0200 (deg)
          preset time         =   0.60 (sec)

# Data      [ Total No. = 3051 ]
  <2Theta>   <   I   >
     4.0000       208
     4.2200       198
     4.4400       200
     4.6600       152
     4.8800       188
     5.1000       150
     5.3200       168
     5.5400       188
     5.7600       172
     5.9800       174
     6.2000       150
     6.4200       172
     6.6400       160
     6.8600       126
     7.0800        98
     7.3000       136
     7.5200       134
     7.7400       116
     7.9600       116
     8.1800       122
     8.4000       126
     8.6200       120
     8.8400       114
     9.0600       136
     9.2800       126
     9.5000       118
     9.7200       112
     9.9400       112
    10.1600       112
    10.3800       102
    10.6000       112
    10.8200        94
    11.0400        98
    11.2600        98
    11.4800        80
    11.7000        94
    11.9200        78
    12.1400        90
    12.3600        82
    12.5800        60
    12.8000        86
    13.0200        76
    13.2400        74
    13.4600        64
    13.6800        66
    13.9000        68
    14.1200        70
    14.3400        66
    14.5600        72
    14.7800        92
    15.0000        72
    15.2200        98
    15.4400       196
    15.6600        74
    15.8800        58
    16.1000        64
    16.3200        62
    16.5400        62
    16.7600        64
    16.9800        76
    17.2000        70
    17.4200        58
    17.6400       158
    17.8600       518
    18.0800        82
    18.3000        62
    18.5200        76
    18.7400        66
    18.9600        58
    19.1800        70
    19.4000        48
    19.6200        52
    19.8400        72
    20.0600        82
    20.2800        70
    20.5000        72
    20.7200        68
    20.9400        84
    21.1600        54
    21.3800        64
    21.6000        68
    21.8200        86
    22.0400        54
    22.2600        66
    22.4800        56
    22.7000        90
    22.9200        54
    23.1400        70
    23.3600        60
    23.5800        74
    23.8000        64
    24.0200        76
    24.2400        66
    24.4600        64
    24.6800        56
    24.9000        68
    25.1200        88
    25.3400       286
    25.5600       164
    25.7800        78
    26.0000        62
    26.2200        52
    26.4400        68
    26.6600       136
    26.8800        56
    27.1000        58
    27.3200        98
    27.5400        66
    27.7600        58
    27.9800        58
    28.2000        48
    28.4200        60
    28.6400        56
    28.8600        56
    29.0800        64
    29.3000        94
    29.5200       142
    29.7400       630
    29.9600       870
    30.1800        88
    30.4000        50
    30.6200        58
    30.8400        66
    31.0600       136
    31.2800        68
    31.5000       120
    31.7200       292
    31.9400        86
    32.1600        48
    32.3800        56
    32.6000        30
    32.8200        54
    33.0400        38
    33.2600        40
    33.4800        46
    33.7000        40
    33.9200        44
    34.1400        34
    34.3600        40
    34.5800        48
    34.8000        46
    35.0200        26
    35.2400        46
    35.4600        46
    35.6800        40
    35.9000        46
    36.1200        62
    36.3400        56
    36.5600        50
    36.7800        36
    37.0000        54
    37.2200        34
    37.4400        42
    37.6600        46
    37.8800        44
    38.1000        36
    38.3200        58
    38.5400        66
    38.7600        42
    38.9800        54
    39.2000        98
    39.4200       316
    39.6400       178
    39.8600        42
    40.0800        46
    40.3000        38
    40.5200        52
    40.7400       142
    40.9600        44
    41.1800        38
    41.4000        28
    41.6200        28
    41.8400        34
    42.0600        38
    42.2800        48
    42.5000        44
    42.7200        48
    42.9400        34
    43.1600        16
    43.3800        36
    43.6000        34
    43.8200        32
    44.0400        22
    44.2600        46
    44.4800        44
    44.7000        42
    44.9200        32
    45.1400        54
    45.3600       164
    45.5800        90
    45.8000        52
    46.0200        38
    46.2400        28
    46.4600        32
    46.6800        32
    46.9000        30
    47.1200        44
    47.3400        84
    47.5600       198
    47.7800       284
    48.0000        48
    48.2200        28
    48.4400        32
    48.6600        28
    48.8800        28
    49.1000        34
    49.3200        56
    49.5400        42
    49.7600        34
    49.9800        36
    50.2000        36
    50.4200        30
    50.6400        26
    50.8600        34
    51.0800        32
    51.3000        44
    51.5200        30
    51.7400        28
    51.9600        54
    52.1800       210
    52.4000       170
    52.6200        54
    52.8400        30
    53.0600        38
    53.2800        30
    53.5000        30
    53.7200        50
    53.9400        46
    54.1600        36
    54.3800        44
    54.6000        36
    54.8200        52
    55.0400        36
    55.2600        38
    55.4800        40
    55.7000        58
    55.9200        46
    56.1400        36
    56.3600        52
    56.5800        44
    56.8000        30
    57.0200        26
    57.2400        40
    57.4600        28
    57.6800        32
    57.9000        38
    58.1200        28
    58.3400        28
    58.5600        32
    58.7800        44
    59.0000        58
    59.2200        46
    59.4400        26
    59.6600        32
    59.8800        44
    60.1000        30
    60.3200        40
    60.5400        42
    60.7600        34
    60.9800        32
    61.2000        34
    61.4200        72
    61.6400        76
    61.8600       156
    62.0800       150
    62.3000        74
    62.5200        46
    62.7400        28
    62.9600        24
    63.1800        30
    63.4000        18
    63.6200        38
    63.8400        40
    64.0600        32
    64.2800        24
    64.5000        34
    64.7200        26
    64.9400        36
    65.0000        44

File: Lee-Plumlee-112-HI-ash.txt
/////////////////////////////////////////////////////////////////////////////////
/// Profile Data Ascii Dump (XRD)                                             ///
/////////////////////////////////////////////////////////////////////////////////

  Group     : Swayze
  Data      : LeePlumlee
  File Name : LeePlumlee.RAW

# Profile Datafile
          comment             = 112 HI ash
          date & time         = 08-04-09 08:53:11

# Measurement Condition
    X-ray tube
          target              = Cu
          voltage             = 40.0 (kV)
          current             = 30.0 (mA)
    Slits
          divergence slit     = 2.00000 (deg)
          scatter slit        = 2.00000 (deg)
          receiving slit      = 0.15000 (mm)
    Scanning
          drive axis          = Theta-2Theta
          scan range          =    4.000 -   65.000
          scan mode           = Continuous Scan
          scan speed          =   2.0000 (deg/min)
          sampling pitch      =   0.0200 (deg)
          preset time         =   0.60 (sec)

# Data      [ Total No. = 3051 ]
  <2Theta>   <   I   >
     4.0000       232
     4.2200       194
     4.4400       180
     4.6600       180
     4.8800       160
     5.1000       188
     5.3200       188
     5.5400       184
     5.7600       148
     5.9800       142
     6.2000       164
     6.4200       138
     6.6400       144
     6.8600       134
     7.0800       128
     7.3000       134
     7.5200       126
     7.7400       104
     7.9600       120
     8.1800       124
     8.4000       120
     8.6200       138
     8.8400       116
     9.0600       118
     9.2800       130
     9.5000       130
     9.7200       134
     9.9400       122
    10.1600       118
    10.3800       124
    10.6000       112
    10.8200       108
    11.0400       124
    11.2600       106
    11.4800       132
    11.7000       126
    11.9200       100
    12.1400        86
    12.3600        94
    12.5800        96
    12.8000        92
    13.0200        82
    13.2400        98
    13.4600        64
    13.6800        86
    13.9000        90
    14.1200        82
    14.3400        82
    14.5600       106
    14.7800        86
    15.0000        88
    15.2200        68
    15.4400        96
    15.6600        76
    15.8800        84
    16.1000        70
    16.3200        80
    16.5400       102
    16.7600        84
    16.9800       106
    17.2000       118
    17.4200        78
    17.6400       106
    17.8600        96
    18.0800       100
    18.3000        98
    18.5200       126
    18.7400       110
    18.9600       124
    19.1800        90
    19.4000       132
    19.6200       138
    19.8400       120
    20.0600       128
    20.2800       152
    20.5000       144
    20.7200       170
    20.9400       152
    21.1600       166
    21.3800       188
    21.6000       168
    21.8200       234
    22.0400       158
    22.2600       146
    22.4800       170
    22.7000       186
    22.9200       166
    23.1400       172
    23.3600       164
    23.5800       152
    23.8000       134
    24.0200       160
    24.2400       178
    24.4600       152
    24.6800       166
    24.9000       204
    25.1200       406
    25.3400      1524
    25.5600       286
    25.7800       166
    26.0000       162
    26.2200       126
    26.4400       132
    26.6600       128
    26.8800       114
    27.1000       124
    27.3200       126
    27.5400       126
    27.7600       148
    27.9800       130
    28.2000       112
    28.4200       122
    28.6400        96
    28.8600       138
    29.0800       132
    29.3000        98
    29.5200       110
    29.7400       138
    29.9600       104
    30.1800       108
    30.4000       122
    30.6200       102
    30.8400        84
    31.0600       168
    31.2800       332
    31.5000       126
    31.7200        98
    31.9400        92
    32.1600        82
    32.3800        82
    32.6000        78
    32.8200        74
    33.0400        54
    33.2600        82
    33.4800        86
    33.7000        80
    33.9200        62
    34.1400        70
    34.3600        80
    34.5800        76
    34.8000        88
    35.0200        70
    35.2400        72
    35.4600        84
    35.6800        94
    35.9000       108
    36.1200       112
    36.3400        92
    36.5600        58
    36.7800        56
    37.0000        72
    37.2200        62
    37.4400        84
    37.6600        64
    37.8800        68
    38.1000        78
    38.3200        92
    38.5400       196
    38.7600        90
    38.9800        62
    39.2000        62
    39.4200        58
    39.6400        62
    39.8600        58
    40.0800        52
    40.3000        60
    40.5200        96
    40.7400       176
    40.9600        80
    41.1800       136
    41.4000        76
    41.6200        56
    41.8400        70
    42.0600        86
    42.2800        54
    42.5000        64
    42.7200        50
    42.9400        56
    43.1600        78
    43.3800        70
    43.6000        78
    43.8200        62
    44.0400        56
    44.2600        72
    44.4800        50
    44.7000        42
    44.9200        60
    45.1400        52
    45.3600        88
    45.5800        50
    45.8000        52
    46.0200        48
    46.2400        56
    46.4600        60
    46.6800        80
    46.9000        60
    47.1200        46
    47.3400        68
    47.5600        54
    47.7800        76
    48.0000        78
    48.2200        84
    48.4400       116
    48.6600       154
    48.8800        84
    49.1000        66
    49.3200        46
    49.5400        56
    49.7600        76
    49.9800        48
    50.2000        62
    50.4200        50
    50.6400        44
    50.8600        36
    51.0800        52
    51.3000        62
    51.5200        50
    51.7400        62
    51.9600        78
    52.1800       190
    52.4000        78
    52.6200        52
    52.8400        44
    53.0600        48
    53.2800        48
    53.5000        58
    53.7200        58
    53.9400        62
    54.1600        68
    54.3800        48
    54.6000        58
    54.8200        60
    55.0400        60
    55.2600        62
    55.4800        82
    55.7000        94
    55.9200        98
    56.1400        56
    56.3600        68
    56.5800        64
    56.8000        60
    57.0200        52
    57.2400        50
    57.4600        50
    57.6800        40
    57.9000        50
    58.1200        62
    58.3400        46
    58.5600        56
    58.7800        64
    59.0000        54
    59.2200        56
    59.4400        50
    59.6600        48
    59.8800        54
    60.1000        46
    60.3200        52
    60.5400        76
    60.7600        64
    60.9800        60
    61.2000        54
    61.4200        52
    61.6400        64
    61.8600        52
    62.0800        96
    62.3000        86
    62.5200        62
    62.7400        56
    62.9600        46
    63.1800        42
    63.4000        46
    63.6200        54
    63.8400        42
    64.0600        50
    64.2800        50
    64.5000        36
    64.7200        62
    64.9400        54
    65.0000        46