Folder: spectroscopy-tetracorder/sl1/usgs/library06/DESCRIPT/new_xrd_results_to_be_added/Rhonda_Driscoll_xrd_runs

File: GDS2---Clinoptilolite.txt
/////////////////////////////////////////////////////////////////////////////////
/// Profile Data Ascii Dump (XRD)                                             ///
/////////////////////////////////////////////////////////////////////////////////

  Group     : Swayze
  Data      : GDS2
  File Name : GDS2.RAW

# Profile Datafile
          comment             = Clinoptilolite
          date & time         = 08-03-24 06:47:01

# Measurement Condition
    X-ray tube
          target              = Cu
          voltage             = 40.0 (kV)
          current             = 30.0 (mA)
    Slits
          divergence slit     = 2.00000 (deg)
          scatter slit        = 2.00000 (deg)
          receiving slit      = 0.15000 (mm)
    Scanning
          drive axis          = Theta-2Theta
          scan range          =    4.000 -   65.000
          scan mode           = Continuous Scan
          scan speed          =   2.0000 (deg/min)
          sampling pitch      =   0.0200 (deg)
          preset time         =   0.60 (sec)

# Data      [ Total No. = 3051 ]
  <2Theta>   <   I   >
     4.0000       182
     4.2200       180
     4.4400       168
     4.6600       182
     4.8800       186
     5.1000       162
     5.3200       168
     5.5400       166
     5.7600       160
     5.9800       184
     6.2000       160
     6.4200       128
     6.6400       150
     6.8600       136
     7.0800       138
     7.3000       144
     7.5200       142
     7.7400       112
     7.9600        96
     8.1800       134
     8.4000       126
     8.6200       124
     8.8400       118
     9.0600       132
     9.2800       162
     9.5000       196
     9.7200       534
     9.9400       234
    10.1600       142
    10.3800       112
    10.6000       130
    10.8200       148
    11.0400       364
    11.2600       128
    11.4800        90
    11.7000        82
    11.9200        86
    12.1400        98
    12.3600       100
    12.5800        88
    12.8000       134
    13.0200       170
    13.2400       104
    13.4600        90
    13.6800        72
    13.9000        80
    14.1200        72
    14.3400        72
    14.5600        70
    14.7800       114
    15.0000        66
    15.2200        68
    15.4400        62
    15.6600        70
    15.8800        76
    16.1000        72
    16.3200        68
    16.5400        98
    16.7600       132
    16.9800       120
    17.2000       358
    17.4200       122
    17.6400        84
    17.8600        68
    18.0800        64
    18.3000        84
    18.5200        72
    18.7400        98
    18.9600       184
    19.1800        86
    19.4000        86
    19.6200        86
    19.8400       108
    20.0600       100
    20.2800       160
    20.5000        98
    20.7200        78
    20.9400        92
    21.1600       106
    21.3800       146
    21.6000       148
    21.8200       172
    22.0400       260
    22.2600       962
    22.4800       658
    22.7000       546
    22.9200       190
    23.1400       150
    23.3600        94
    23.5800        98
    23.8000       142
    24.0200        98
    24.2400        84
    24.4600        72
    24.6800        72
    24.9000       226
    25.1200       126
    25.3400        88
    25.5600       166
    25.7800       200
    26.0000       380
    26.2200       302
    26.4400        90
    26.6600       174
    26.8800       116
    27.1000        80
    27.3200        82
    27.5400        98
    27.7600       142
    27.9800       290
    28.2000       238
    28.4200       168
    28.6400       212
    28.8600       210
    29.0800       160
    29.3000       106
    29.5200       148
    29.7400       294
    29.9600       512
    30.1800       350
    30.4000       120
    30.6200        74
    30.8400        76
    31.0600        70
    31.2800        82
    31.5000        64
    31.7200       120
    31.9400       442
    32.1600       114
    32.3800        92
    32.6000       162
    32.8200       214
    33.0400       108
    33.2600        86
    33.4800       120
    33.7000        62
    33.9200        58
    34.1400        58
    34.3600        72
    34.5800        70
    34.8000        90
    35.0200       140
    35.2400       104
    35.4600       130
    35.6800       116
    35.9000        94
    36.1200       104
    36.3400        74
    36.5600       130
    36.7800       202
    37.0000       176
    37.2200        98
    37.4400        66
    37.6600        74
    37.8800       100
    38.1000        82
    38.3200        68
    38.5400        68
    38.7600        60
    38.9800        58
    39.2000        64
    39.4200        76
    39.6400        70
    39.8600        62
    40.0800        58
    40.3000        58
    40.5200        54
    40.7400        66
    40.9600        64
    41.1800        88
    41.4000        68
    41.6200        42
    41.8400        70
    42.0600        68
    42.2800        72
    42.5000        60
    42.7200        72
    42.9400        76
    43.1600        94
    43.3800        76
    43.6000        66
    43.8200        84
    44.0400        84
    44.2600        58
    44.4800        72
    44.7000        78
    44.9200       132
    45.1400        76
    45.3600        54
    45.5800        60
    45.8000        66
    46.0200        60
    46.2400       124
    46.4600        86
    46.6800        94
    46.9000        74
    47.1200        80
    47.3400        54
    47.5600        54
    47.7800        54
    48.0000        50
    48.2200        44
    48.4400        46
    48.6600        44
    48.8800        70
    49.1000        72
    49.3200        44
    49.5400        60
    49.7600        62
    49.9800        74
    50.2000        58
    50.4200        58
    50.6400        50
    50.8600        62
    51.0800        80
    51.3000        82
    51.5200        94
    51.7400       114
    51.9600        84
    52.1800        76
    52.4000        86
    52.6200        76
    52.8400        74
    53.0600        90
    53.2800        76
    53.5000        62
    53.7200        66
    53.9400        76
    54.1600       102
    54.3800        88
    54.6000        60
    54.8200        50
    55.0400        68
    55.2600        76
    55.4800        60
    55.7000        82
    55.9200        60
    56.1400        68
    56.3600        70
    56.5800        58
    56.8000        60
    57.0200        60
    57.2400        56
    57.4600        44
    57.6800        74
    57.9000        68
    58.1200        84
    58.3400        66
    58.5600        46
    58.7800        48
    59.0000        56
    59.2200        78
    59.4400        64
    59.6600        46
    59.8800        54
    60.1000        72
    60.3200        62
    60.5400        50
    60.7600        74
    60.9800        64
    61.2000        64
    61.4200        58
    61.6400        66
    61.8600        46
    62.0800        64
    62.3000        68
    62.5200        80
    62.7400        90
    62.9600        74
    63.1800        60
    63.4000        46
    63.6200        58
    63.8400        76
    64.0600        84
    64.2800        88
    64.5000        60
    64.7200        70
    64.9400        98
    65.0000        88

File: GDS3---Heulandite.txt
/////////////////////////////////////////////////////////////////////////////////
/// Profile Data Ascii Dump (XRD)                                             ///
/////////////////////////////////////////////////////////////////////////////////

  Group     : Swayze
  Data      : GDS3
  File Name : GDS3.RAW

# Profile Datafile
          comment             = Heulandite
          date & time         = 08-03-25 07:24:04

# Measurement Condition
    X-ray tube
          target              = Cu
          voltage             = 40.0 (kV)
          current             = 30.0 (mA)
    Slits
          divergence slit     = 2.00000 (deg)
          scatter slit        = 2.00000 (deg)
          receiving slit      = 0.15000 (mm)
    Scanning
          drive axis          = Theta-2Theta
          scan range          =    4.000 -   65.000
          scan mode           = Continuous Scan
          scan speed          =   2.0000 (deg/min)
          sampling pitch      =   0.0200 (deg)
          preset time         =   0.60 (sec)

# Data      [ Total No. = 3051 ]
  <2Theta>   <   I   >
     4.0000       186
     4.2200       180
     4.4400       162
     4.6600       166
     4.8800       148
     5.1000       178
     5.3200       156
     5.5400       158
     5.7600       130
     5.9800       164
     6.2000       140
     6.4200       132
     6.6400       118
     6.8600       114
     7.0800       140
     7.3000       106
     7.5200        96
     7.7400       110
     7.9600       124
     8.1800       106
     8.4000       138
     8.6200       118
     8.8400       132
     9.0600       138
     9.2800       176
     9.5000       516
     9.7200      5548
     9.9400       482
    10.1600       108
    10.3800       110
    10.6000       110
    10.8200       102
    11.0400       120
    11.2600        92
    11.4800        94
    11.7000        74
    11.9200        74
    12.1400        82
    12.3600        74
    12.5800        70
    12.8000        98
    13.0200        90
    13.2400       102
    13.4600        70
    13.6800        56
    13.9000        78
    14.1200        84
    14.3400        74
    14.5600        66
    14.7800        70
    15.0000        70
    15.2200        60
    15.4400        78
    15.6600       112
    15.8800        88
    16.1000        72
    16.3200        86
    16.5400       112
    16.7600       152
    16.9800        76
    17.2000       142
    17.4200       110
    17.6400        54
    17.8600        64
    18.0800        56
    18.3000        62
    18.5200        58
    18.7400       100
    18.9600       280
    19.1800        70
    19.4000        78
    19.6200       134
    19.8400       136
    20.0600        78
    20.2800        68
    20.5000        62
    20.7200        66
    20.9400        56
    21.1600        54
    21.3800        56
    21.6000        58
    21.8200        70
    22.0400       152
    22.2600       506
    22.4800       228
    22.7000       476
    22.9200        76
    23.1400        72
    23.3600        62
    23.5800        90
    23.8000       102
    24.0200        50
    24.2400        86
    24.4600        72
    24.6800        84
    24.9000        78
    25.1200        70
    25.3400       104
    25.5600       112
    25.7800       142
    26.0000       140
    26.2200        78
    26.4400        48
    26.6600        84
    26.8800        58
    27.1000        50
    27.3200        42
    27.5400        56
    27.7600        74
    27.9800       152
    28.2000        74
    28.4200       248
    28.6400        90
    28.8600        90
    29.0800        78
    29.3000        86
    29.5200       198
    29.7400       584
    29.9600      1244
    30.1800       284
    30.4000        60
    30.6200        46
    30.8400        42
    31.0600        56
    31.2800        54
    31.5000        70
    31.7200       152
    31.9400       164
    32.1600        68
    32.3800        76
    32.6000       302
    32.8200       374
    33.0400        86
    33.2600        52
    33.4800        74
    33.7000        40
    33.9200        44
    34.1400        36
    34.3600        38
    34.5800        48
    34.8000        46
    35.0200        64
    35.2400        98
    35.4600       238
    35.6800       130
    35.9000        82
    36.1200        84
    36.3400        94
    36.5600        84
    36.7800       116
    37.0000        98
    37.2200        52
    37.4400        52
    37.6600        74
    37.8800        58
    38.1000        60
    38.3200        52
    38.5400        54
    38.7600        84
    38.9800        92
    39.2000        60
    39.4200        74
    39.6400        74
    39.8600        62
    40.0800       158
    40.3000       228
    40.5200        64
    40.7400        44
    40.9600        56
    41.1800        64
    41.4000        40
    41.6200        60
    41.8400        96
    42.0600        86
    42.2800        76
    42.5000       112
    42.7200        54
    42.9400        44
    43.1600        98
    43.3800        60
    43.6000        76
    43.8200        60
    44.0400        50
    44.2600        38
    44.4800        60
    44.7000        88
    44.9200        60
    45.1400        66
    45.3600        64
    45.5800        52
    45.8000       160
    46.0200       178
    46.2400        94
    46.4600        56
    46.6800        50
    46.9000        58
    47.1200        96
    47.3400       116
    47.5600        58
    47.7800        48
    48.0000        44
    48.2200        46
    48.4400        40
    48.6600        64
    48.8800        96
    49.1000        62
    49.3200        40
    49.5400        46
    49.7600        68
    49.9800        62
    50.2000        60
    50.4200        58
    50.6400       110
    50.8600       442
    51.0800       588
    51.3000       156
    51.5200       110
    51.7400        82
    51.9600        70
    52.1800        60
    52.4000        76
    52.6200       104
    52.8400       164
    53.0600       194
    53.2800        66
    53.5000        50
    53.7200        56
    53.9400        78
    54.1600        52
    54.3800        50
    54.6000        56
    54.8200        40
    55.0400        56
    55.2600        40
    55.4800        88
    55.7000        76
    55.9200        54
    56.1400        72
    56.3600        82
    56.5800        52
    56.8000        62
    57.0200        46
    57.2400        50
    57.4600        36
    57.6800        62
    57.9000        68
    58.1200        52
    58.3400        48
    58.5600        54
    58.7800        44
    59.0000        66
    59.2200        70
    59.4400        64
    59.6600        50
    59.8800        48
    60.1000        42
    60.3200        38
    60.5400        62
    60.7600        70
    60.9800        42
    61.2000        38
    61.4200        34
    61.6400        50
    61.8600        62
    62.0800       176
    62.3000       238
    62.5200       172
    62.7400        78
    62.9600        68
    63.1800        72
    63.4000        80
    63.6200        80
    63.8400        60
    64.0600        64
    64.2800        46
    64.5000        54
    64.7200        88
    64.9400        72
    65.0000        66

File: GDS5---Laumontite.txt
/////////////////////////////////////////////////////////////////////////////////
/// Profile Data Ascii Dump (XRD)                                             ///
/////////////////////////////////////////////////////////////////////////////////

  Group     : Swayze
  Data      : GDS5b
  File Name : GDS5b.RAW

# Profile Datafile
          comment             = Laumontite
          date & time         = 08-03-27 05:43:50

# Measurement Condition
    X-ray tube
          target              = Cu
          voltage             = 40.0 (kV)
          current             = 30.0 (mA)
    Slits
          divergence slit     = 2.00000 (deg)
          scatter slit        = 2.00000 (deg)
          receiving slit      = 0.15000 (mm)
    Scanning
          drive axis          = Theta-2Theta
          scan range          =    4.000 -   65.000
          scan mode           = Continuous Scan
          scan speed          =   2.0000 (deg/min)
          sampling pitch      =   0.0200 (deg)
          preset time         =   0.60 (sec)

# Data      [ Total No. = 3051 ]
  <2Theta>   <   I   >
     4.0000       182
     4.2200       182
     4.4400       182
     4.6600       152
     4.8800       180
     5.1000       148
     5.3200       154
     5.5400       198
     5.7600       170
     5.9800       174
     6.2000       162
     6.4200       136
     6.6400       124
     6.8600       130
     7.0800       108
     7.3000       128
     7.5200       120
     7.7400       116
     7.9600       132
     8.1800        94
     8.4000       144
     8.6200       136
     8.8400       268
     9.0600       406
     9.2800      3618
     9.5000       172
     9.7200        94
     9.9400       118
    10.1600        94
    10.3800       104
    10.6000       104
    10.8200        94
    11.0400        96
    11.2600        90
    11.4800        86
    11.7000        96
    11.9200        74
    12.1400        84
    12.3600       114
    12.5800       184
    12.8000      1070
    13.0200       122
    13.2400        88
    13.4600        90
    13.6800        70
    13.9000       104
    14.1200        70
    14.3400        64
    14.5600        66
    14.7800        70
    15.0000        52
    15.2200        64
    15.4400        62
    15.6600        58
    15.8800        52
    16.1000        44
    16.3200        46
    16.5400        70
    16.7600        52
    16.9800        70
    17.2000        62
    17.4200        96
    17.6400        54
    17.8600        46
    18.0800        62
    18.3000        70
    18.5200       190
    18.7400       834
    18.9600        66
    19.1800        66
    19.4000        64
    19.6200       142
    19.8400        42
    20.0600        56
    20.2800        54
    20.5000       118
    20.7200        68
    20.9400       148
    21.1600       596
    21.3800      1066
    21.6000        72
    21.8200        40
    22.0400        48
    22.2600        50
    22.4800        50
    22.7000        36
    22.9200        46
    23.1400        42
    23.3600        32
    23.5800        80
    23.8000        40
    24.0200        62
    24.2400       356
    24.4600        58
    24.6800        50
    24.9000        50
    25.1200       252
    25.3400       336
    25.5600        48
    25.7800        70
    26.0000       156
    26.2200        72
    26.4400       192
    26.6600        38
    26.8800        82
    27.1000       502
    27.3200       178
    27.5400        62
    27.7600       246
    27.9800       138
    28.2000       988
    28.4200       106
    28.6400        64
    28.8600        58
    29.0800       104
    29.3000       688
    29.5200       238
    29.7400        50
    29.9600        48
    30.1800       166
    30.4000        42
    30.6200        48
    30.8400       102
    31.0600       126
    31.2800        28
    31.5000        44
    31.7200        54
    31.9400        88
    32.1600        38
    32.3800        30
    32.6000        34
    32.8200        38
    33.0400        48
    33.2600        30
    33.4800        54
    33.7000        52
    33.9200       114
    34.1400        54
    34.3600        52
    34.5800        58
    34.8000       364
    35.0200        44
    35.2400        94
    35.4600       146
    35.6800        78
    35.9000        54
    36.1200        38
    36.3400        90
    36.5600        78
    36.7800       466
    37.0000        46
    37.2200        40
    37.4400        64
    37.6600        70
    37.8800       228
    38.1000       702
    38.3200        68
    38.5400        40
    38.7600        90
    38.9800        36
    39.2000        42
    39.4200       110
    39.6400       302
    39.8600        48
    40.0800        50
    40.3000        34
    40.5200        76
    40.7400        52
    40.9600        50
    41.1800        66
    41.4000       146
    41.6200       106
    41.8400       464
    42.0600       190
    42.2800        48
    42.5000        44
    42.7200        26
    42.9400        22
    43.1600        76
    43.3800        82
    43.6000        52
    43.8200        50
    44.0400        28
    44.2600        40
    44.4800        18
    44.7000        20
    44.9200        30
    45.1400        38
    45.3600        76
    45.5800        82
    45.8000        34
    46.0200        92
    46.2400       172
    46.4600        72
    46.6800        54
    46.9000        40
    47.1200        22
    47.3400        26
    47.5600        56
    47.7800        44
    48.0000       242
    48.2200       134
    48.4400        68
    48.6600        72
    48.8800        36
    49.1000       122
    49.3200        56
    49.5400        40
    49.7600        64
    49.9800        46
    50.2000        36
    50.4200        34
    50.6400        46
    50.8600        38
    51.0800        38
    51.3000        22
    51.5200        40
    51.7400        58
    51.9600        66
    52.1800        36
    52.4000        30
    52.6200        46
    52.8400        38
    53.0600        24
    53.2800        28
    53.5000       116
    53.7200       100
    53.9400        40
    54.1600        34
    54.3800        40
    54.6000        48
    54.8200        50
    55.0400        42
    55.2600        32
    55.4800        42
    55.7000        36
    55.9200        44
    56.1400       194
    56.3600       136
    56.5800       104
    56.8000        48
    57.0200        34
    57.2400        30
    57.4600        52
    57.6800        68
    57.9000       110
    58.1200        54
    58.3400        72
    58.5600       120
    58.7800       120
    59.0000       256
    59.2200        54
    59.4400        34
    59.6600        48
    59.8800        54
    60.1000        58
    60.3200        66
    60.5400        68
    60.7600       178
    60.9800       104
    61.2000        32
    61.4200        48
    61.6400        22
    61.8600        46
    62.0800        60
    62.3000        56
    62.5200        32
    62.7400        60
    62.9600       144
    63.1800        70
    63.4000        28
    63.6200        30
    63.8400        50
    64.0600        32
    64.2800        42
    64.5000        66
    64.7200       200
    64.9400       174
    65.0000       106