Folder: spectroscopy-tetracorder/sl1/usgs/library06/DESCRIPT/new_xrd_results_to_be_added/Rhonda_Driscoll_xrd_runs (part 16)

File: RLO-2125.txt
/////////////////////////////////////////////////////////////////////////////////
/// Profile Data Ascii Dump (XRD)                                             ///
/////////////////////////////////////////////////////////////////////////////////

  Group     : Swayze
  Data      : RLO 2125
  File Name : RLO 2125.RAW

# Profile Datafile
          comment             =
          date & time         = 08-03-11 07:38:40

# Measurement Condition
    X-ray tube
          target              = Cu
          voltage             = 40.0 (kV)
          current             = 30.0 (mA)
    Slits
          divergence slit     = 2.00000 (deg)
          scatter slit        = 2.00000 (deg)
          receiving slit      = 0.15000 (mm)
    Scanning
          drive axis          = Theta-2Theta
          scan range          =    4.000 -   65.000
          scan mode           = Continuous Scan
          scan speed          =   2.0000 (deg/min)
          sampling pitch      =   0.0200 (deg)
          preset time         =   0.60 (sec)

# Data      [ Total No. = 3051 ]
  <2Theta>   <   I   >
     4.0000       216
     4.2200       230
     4.4400       192
     4.6600       206
     4.8800       170
     5.1000       166
     5.3200       168
     5.5400       166
     5.7600       186
     5.9800       174
     6.2000       162
     6.4200       146
     6.6400       150
     6.8600       142
     7.0800       146
     7.3000       110
     7.5200       122
     7.7400       132
     7.9600       118
     8.1800       144
     8.4000       130
     8.6200       154
     8.8400       180
     9.0600       122
     9.2800       102
     9.5000       110
     9.7200       110
     9.9400        90
    10.1600       108
    10.3800        92
    10.6000        98
    10.8200       132
    11.0400       114
    11.2600       102
    11.4800       122
    11.7000       194
    11.9200       456
    12.1400      1438
    12.3600      1648
    12.5800       214
    12.8000       116
    13.0200        72
    13.2400        84
    13.4600        64
    13.6800        56
    13.9000        72
    14.1200        56
    14.3400        72
    14.5600        54
    14.7800        74
    15.0000        58
    15.2200        54
    15.4400        58
    15.6600        52
    15.8800        54
    16.1000        56
    16.3200        62
    16.5400        50
    16.7600        48
    16.9800        56
    17.2000        54
    17.4200        46
    17.6400        82
    17.8600        66
    18.0800        58
    18.3000        48
    18.5200        64
    18.7400        52
    18.9600        52
    19.1800        48
    19.4000        88
    19.6200       168
    19.8400       296
    20.0600       260
    20.2800       434
    20.5000       280
    20.7200       214
    20.9400       252
    21.1600       458
    21.3800       338
    21.6000       174
    21.8200       156
    22.0400       156
    22.2600       124
    22.4800       138
    22.7000       180
    22.9200       250
    23.1400       204
    23.3600       126
    23.5800       166
    23.8000       154
    24.0200       108
    24.2400       158
    24.4600       418
    24.6800      1732
    24.9000      1438
    25.1200       260
    25.3400       150
    25.5600       114
    25.7800       108
    26.0000       128
    26.2200       202
    26.4400       148
    26.6600       178
    26.8800        98
    27.1000        78
    27.3200        86
    27.5400        70
    27.7600        68
    27.9800        84
    28.2000       106
    28.4200        86
    28.6400        78
    28.8600        60
    29.0800        56
    29.3000        62
    29.5200        66
    29.7400        84
    29.9600        46
    30.1800        38
    30.4000        48
    30.6200        54
    30.8400        52
    31.0600        70
    31.2800        48
    31.5000        62
    31.7200        38
    31.9400        44
    32.1600        78
    32.3800       100
    32.6000        56
    32.8200        46
    33.0400        40
    33.2600        54
    33.4800        46
    33.7000        42
    33.9200        44
    34.1400        42
    34.3600        70
    34.5800        90
    34.8000       294
    35.0200       212
    35.2400       208
    35.4600       166
    35.6800       230
    35.9000       340
    36.1200       114
    36.3400        60
    36.5600        54
    36.7800        66
    37.0000        80
    37.2200        88
    37.4400       156
    37.6600       342
    37.8800       138
    38.1000       290
    38.3200       606
    38.5400       314
    38.7600       152
    38.9800       256
    39.2000       356
    39.4200       114
    39.6400        68
    39.8600        84
    40.0800        72
    40.3000        64
    40.5200        58
    40.7400        66
    40.9600        88
    41.1800        88
    41.4000        48
    41.6200        50
    41.8400        56
    42.0600        52
    42.2800        62
    42.5000        52
    42.7200        38
    42.9400        44
    43.1600        40
    43.3800        30
    43.6000        38
    43.8200        52
    44.0400        28
    44.2600        42
    44.4800        30
    44.7000        46
    44.9200        76
    45.1400       118
    45.3600       222
    45.5800       182
    45.8000        94
    46.0200        64
    46.2400        92
    46.4600        86
    46.6800       104
    46.9000        92
    47.1200        64
    47.3400        86
    47.5600        74
    47.7800        84
    48.0000        66
    48.2200        70
    48.4400        58
    48.6600        60
    48.8800        52
    49.1000        78
    49.3200        98
    49.5400        82
    49.7600        42
    49.9800        48
    50.2000        50
    50.4200        62
    50.6400        66
    50.8600       154
    51.0800       124
    51.3000        52
    51.5200        40
    51.7400        38
    51.9600        42
    52.1800        44
    52.4000        38
    52.6200        38
    52.8400        46
    53.0600        44
    53.2800        48
    53.5000        44
    53.7200        58
    53.9400        46
    54.1600        92
    54.3800       102
    54.6000       118
    54.8200       198
    55.0400       296
    55.2600       210
    55.4800       144
    55.7000       118
    55.9200        98
    56.1400        90
    56.3600       132
    56.5800       158
    56.8000       170
    57.0200        92
    57.2400        62
    57.4600        56
    57.6800        56
    57.9000        88
    58.1200        94
    58.3400        64
    58.5600        56
    58.7800        48
    59.0000        48
    59.2200        60
    59.4400        88
    59.6600       112
    59.8800       116
    60.1000        90
    60.3200        78
    60.5400        50
    60.7600        68
    60.9800        44
    61.2000        68
    61.4200        48
    61.6400        46
    61.8600        88
    62.0800       234
    62.3000       266
    62.5200       108
    62.7400        62
    62.9600        56
    63.1800        70
    63.4000        60
    63.6200        74
    63.8400        84
    64.0600        78
    64.2800        74
    64.5000        64
    64.7200        58
    64.9400        44
    65.0000        90

File: RLO-2126.txt
/////////////////////////////////////////////////////////////////////////////////
/// Profile Data Ascii Dump (XRD)                                             ///
/////////////////////////////////////////////////////////////////////////////////

  Group     : Swayze
  Data      : RLO 2126
  File Name : RLO 2126.RAW

# Profile Datafile
          comment             =
          date & time         = 08-03-11 08:09:36

# Measurement Condition
    X-ray tube
          target              = Cu
          voltage             = 40.0 (kV)
          current             = 30.0 (mA)
    Slits
          divergence slit     = 2.00000 (deg)
          scatter slit        = 2.00000 (deg)
          receiving slit      = 0.15000 (mm)
    Scanning
          drive axis          = Theta-2Theta
          scan range          =    4.000 -   65.000
          scan mode           = Continuous Scan
          scan speed          =   2.0000 (deg/min)
          sampling pitch      =   0.0200 (deg)
          preset time         =   0.60 (sec)

# Data      [ Total No. = 3051 ]
  <2Theta>   <   I   >
     4.0000       212
     4.2200       236
     4.4400       188
     4.6600       188
     4.8800       176
     5.1000       174
     5.3200       162
     5.5400       156
     5.7600       176
     5.9800       160
     6.2000       166
     6.4200       148
     6.6400       146
     6.8600       132
     7.0800       122
     7.3000       110
     7.5200       114
     7.7400       138
     7.9600       140
     8.1800       150
     8.4000       146
     8.6200       196
     8.8400       296
     9.0600       118
     9.2800       124
     9.5000       110
     9.7200       104
     9.9400       108
    10.1600       112
    10.3800        94
    10.6000       108
    10.8200       102
    11.0400       120
    11.2600       128
    11.4800       118
    11.7000       212
    11.9200       478
    12.1400      1568
    12.3600      3174
    12.5800       240
    12.8000       124
    13.0200        86
    13.2400        76
    13.4600        62
    13.6800        72
    13.9000        60
    14.1200        74
    14.3400        64
    14.5600        50
    14.7800        52
    15.0000        58
    15.2200        56
    15.4400        64
    15.6600        64
    15.8800        52
    16.1000        58
    16.3200        56
    16.5400        58
    16.7600        52
    16.9800        58
    17.2000        64
    17.4200        58
    17.6400       136
    17.8600        84
    18.0800        50
    18.3000        38
    18.5200        52
    18.7400        52
    18.9600        50
    19.1800        50
    19.4000        58
    19.6200       148
    19.8400       242
    20.0600       174
    20.2800       342
    20.5000       144
    20.7200       154
    20.9400       212
    21.1600       334
    21.3800       202
    21.6000       142
    21.8200       124
    22.0400       120
    22.2600       110
    22.4800       108
    22.7000       122
    22.9200       210
    23.1400       192
    23.3600       106
    23.5800       148
    23.8000       138
    24.0200       146
    24.2400       192
    24.4600       418
    24.6800      2186
    24.9000      2608
    25.1200       306
    25.3400       148
    25.5600        98
    25.7800        98
    26.0000       134
    26.2200       192
    26.4400       198
    26.6600       394
    26.8800       116
    27.1000        94
    27.3200        58
    27.5400        72
    27.7600        80
    27.9800        72
    28.2000       100
    28.4200        66
    28.6400        88
    28.8600        68
    29.0800        58
    29.3000        42
    29.5200        62
    29.7400        68
    29.9600        68
    30.1800        54
    30.4000        50
    30.6200        68
    30.8400        44
    31.0600        74
    31.2800        46
    31.5000        62
    31.7200        56
    31.9400        60
    32.1600        78
    32.3800       104
    32.6000        60
    32.8200        56
    33.0400        48
    33.2600        48
    33.4800        46
    33.7000        54
    33.9200        50
    34.1400        48
    34.3600        46
    34.5800        86
    34.8000       210
    35.0200       186
    35.2400       142
    35.4600       144
    35.6800       176
    35.9000       272
    36.1200       102
    36.3400        64
    36.5600        68
    36.7800        50
    37.0000        66
    37.2200        70
    37.4400       194
    37.6600       578
    37.8800       120
    38.1000       192
    38.3200       506
    38.5400       242
    38.7600        90
    38.9800       178
    39.2000       350
    39.4200       102
    39.6400        54
    39.8600        60
    40.0800        62
    40.3000        68
    40.5200        70
    40.7400        56
    40.9600        82
    41.1800        82
    41.4000        60
    41.6200        36
    41.8400        62
    42.0600        52
    42.2800        86
    42.5000        62
    42.7200        40
    42.9400        38
    43.1600        42
    43.3800        42
    43.6000        58
    43.8200        50
    44.0400        38
    44.2600        48
    44.4800        36
    44.7000        46
    44.9200        62
    45.1400       172
    45.3600       256
    45.5800       204
    45.8000        90
    46.0200        68
    46.2400        60
    46.4600        84
    46.6800       106
    46.9000        92
    47.1200        70
    47.3400        70
    47.5600        62
    47.7800        86
    48.0000        90
    48.2200        52
    48.4400        74
    48.6600        60
    48.8800        44
    49.1000        50
    49.3200        86
    49.5400        78
    49.7600        48
    49.9800        54
    50.2000        48
    50.4200        58
    50.6400        58
    50.8600       182
    51.0800       184
    51.3000        52
    51.5200        34
    51.7400        38
    51.9600        42
    52.1800        40
    52.4000        42
    52.6200        40
    52.8400        34
    53.0600        48
    53.2800        60
    53.5000        60
    53.7200        40
    53.9400        40
    54.1600        70
    54.3800        82
    54.6000        90
    54.8200       184
    55.0400       252
    55.2600       224
    55.4800       140
    55.7000       106
    55.9200       106
    56.1400        84
    56.3600        92
    56.5800       148
    56.8000       156
    57.0200        84
    57.2400        64
    57.4600        58
    57.6800        68
    57.9000        84
    58.1200       102
    58.3400        80
    58.5600        50
    58.7800        48
    59.0000        48
    59.2200        60
    59.4400        90
    59.6600       122
    59.8800       128
    60.1000       126
    60.3200        84
    60.5400        72
    60.7600        58
    60.9800        36
    61.2000        56
    61.4200        60
    61.6400        48
    61.8600        56
    62.0800       126
    62.3000       184
    62.5200        94
    62.7400        38
    62.9600        58
    63.1800        66
    63.4000        52
    63.6200        74
    63.8400        76
    64.0600        82
    64.2800        82
    64.5000        62
    64.7200        40
    64.9400        94
    65.0000       104

File: RLO-2127.txt
/////////////////////////////////////////////////////////////////////////////////
/// Profile Data Ascii Dump (XRD)                                             ///
/////////////////////////////////////////////////////////////////////////////////

  Group     : Swayze
  Data      : RLO 2127
  File Name : RLO 2127.RAW

# Profile Datafile
          comment             =
          date & time         = 08-03-11 07:07:41

# Measurement Condition
    X-ray tube
          target              = Cu
          voltage             = 40.0 (kV)
          current             = 30.0 (mA)
    Slits
          divergence slit     = 2.00000 (deg)
          scatter slit        = 2.00000 (deg)
          receiving slit      = 0.15000 (mm)
    Scanning
          drive axis          = Theta-2Theta
          scan range          =    4.000 -   65.000
          scan mode           = Continuous Scan
          scan speed          =   2.0000 (deg/min)
          sampling pitch      =   0.0200 (deg)
          preset time         =   0.60 (sec)

# Data      [ Total No. = 3051 ]
  <2Theta>   <   I   >
     4.0000       222
     4.2200       208
     4.4400       188
     4.6600       192
     4.8800       222
     5.1000       178
     5.3200       210
     5.5400       216
     5.7600       208
     5.9800       192
     6.2000       236
     6.4200       226
     6.6400       224
     6.8600       194
     7.0800       168
     7.3000       164
     7.5200       156
     7.7400       148
     7.9600       120
     8.1800       142
     8.4000       144
     8.6200       142
     8.8400       216
     9.0600       118
     9.2800       116
     9.5000       142
     9.7200        94
     9.9400       104
    10.1600       114
    10.3800       116
    10.6000       120
    10.8200       116
    11.0400       108
    11.2600       118
    11.4800       122
    11.7000       126
    11.9200       258
    12.1400       622
    12.3600      1292
    12.5800       202
    12.8000       132
    13.0200        86
    13.2400        88
    13.4600        98
    13.6800        62
    13.9000       100
    14.1200        76
    14.3400        56
    14.5600        54
    14.7800        68
    15.0000        64
    15.2200        70
    15.4400        70
    15.6600        58
    15.8800        64
    16.1000        80
    16.3200        60
    16.5400        60
    16.7600        52
    16.9800        64
    17.2000        62
    17.4200        82
    17.6400        72
    17.8600        64
    18.0800        76
    18.3000        60
    18.5200        56
    18.7400        58
    18.9600        64
    19.1800        62
    19.4000        94
    19.6200       124
    19.8400       260
    20.0600       158
    20.2800       222
    20.5000       172
    20.7200       206
    20.9400       246
    21.1600       226
    21.3800       234
    21.6000       156
    21.8200       118
    22.0400       108
    22.2600       124
    22.4800       174
    22.7000       134
    22.9200       178
    23.1400       204
    23.3600       212
    23.5800       176
    23.8000       170
    24.0200       136
    24.2400       154
    24.4600       246
    24.6800       716
    24.9000      1274
    25.1200       276
    25.3400       154
    25.5600       186
    25.7800       158
    26.0000       124
    26.2200       142
    26.4400       176
    26.6600       358
    26.8800       284
    27.1000       204
    27.3200       194
    27.5400       200
    27.7600       126
    27.9800        64
    28.2000        72
    28.4200        88
    28.6400       106
    28.8600        76
    29.0800        74
    29.3000        72
    29.5200       102
    29.7400       156
    29.9600       100
    30.1800        86
    30.4000        66
    30.6200        86
    30.8400        94
    31.0600        76
    31.2800        66
    31.5000        46
    31.7200        54
    31.9400        68
    32.1600        78
    32.3800        92
    32.6000        62
    32.8200        54
    33.0400        44
    33.2600        46
    33.4800        52
    33.7000        48
    33.9200        44
    34.1400        68
    34.3600       100
    34.5800       136
    34.8000       202
    35.0200       254
    35.2400       150
    35.4600       202
    35.6800       124
    35.9000       250
    36.1200       130
    36.3400        86
    36.5600        76
    36.7800        54
    37.0000        92
    37.2200        62
    37.4400       106
    37.6600       270
    37.8800       134
    38.1000       142
    38.3200       286
    38.5400       258
    38.7600       160
    38.9800       138
    39.2000       198
    39.4200       126
    39.6400        68
    39.8600        54
    40.0800        72
    40.3000        76
    40.5200        62
    40.7400        74
    40.9600        74
    41.1800        78
    41.4000        82
    41.6200        86
    41.8400        94
    42.0600        78
    42.2800        76
    42.5000        82
    42.7200        56
    42.9400        46
    43.1600        46
    43.3800        38
    43.6000        50
    43.8200        58
    44.0400        60
    44.2600        54
    44.4800        46
    44.7000        68
    44.9200        58
    45.1400        96
    45.3600       158
    45.5800       132
    45.8000       102
    46.0200        82
    46.2400        72
    46.4600        80
    46.6800        82
    46.9000       116
    47.1200        68
    47.3400        64
    47.5600        70
    47.7800        66
    48.0000        76
    48.2200        56
    48.4400        52
    48.6600        56
    48.8800        54
    49.1000        76
    49.3200        82
    49.5400        78
    49.7600        54
    49.9800        40
    50.2000        56
    50.4200        56
    50.6400        92
    50.8600       122
    51.0800       130
    51.3000        64
    51.5200        56
    51.7400        46
    51.9600        36
    52.1800        40
    52.4000        38
    52.6200        56
    52.8400        52
    53.0600        52
    53.2800        36
    53.5000        40
    53.7200        46
    53.9400        58
    54.1600        86
    54.3800        76
    54.6000        94
    54.8200       138
    55.0400       184
    55.2600       166
    55.4800       130
    55.7000        96
    55.9200        92
    56.1400        86
    56.3600       106
    56.5800       116
    56.8000       104
    57.0200        76
    57.2400        66
    57.4600        60
    57.6800        68
    57.9000        64
    58.1200        80
    58.3400        70
    58.5600        74
    58.7800        52
    59.0000        74
    59.2200        62
    59.4400        56
    59.6600        82
    59.8800       100
    60.1000        92
    60.3200        72
    60.5400        70
    60.7600        62
    60.9800        46
    61.2000        60
    61.4200        90
    61.6400        84
    61.8600        86
    62.0800       142
    62.3000       170
    62.5200        94
    62.7400        78
    62.9600        58
    63.1800        62
    63.4000        78
    63.6200        66
    63.8400        78
    64.0600        88
    64.2800        78
    64.5000        72
    64.7200        66
    64.9400        78
    65.0000        66