Folder: spectroscopy-tetracorder/sl1/usgs/library06/DESCRIPT/new_xrd_results_to_be_added/Rhonda_Driscoll_xrd_runs (part 2)

File: GDS5---Mesolite.txt
/////////////////////////////////////////////////////////////////////////////////
/// Profile Data Ascii Dump (XRD)                                             ///
/////////////////////////////////////////////////////////////////////////////////

  Group     : Swayze
  Data      : GDS5
  File Name : GDS5.RAW

# Profile Datafile
          comment             = Mesolite
          date & time         = 08-03-24 08:19:54

# Measurement Condition
    X-ray tube
          target              = Cu
          voltage             = 40.0 (kV)
          current             = 30.0 (mA)
    Slits
          divergence slit     = 2.00000 (deg)
          scatter slit        = 2.00000 (deg)
          receiving slit      = 0.15000 (mm)
    Scanning
          drive axis          = Theta-2Theta
          scan range          =    4.000 -   65.000
          scan mode           = Continuous Scan
          scan speed          =   2.0000 (deg/min)
          sampling pitch      =   0.0200 (deg)
          preset time         =   0.60 (sec)

# Data      [ Total No. = 3051 ]
  <2Theta>   <   I   >
     4.0000       196
     4.2200       180
     4.4400       178
     4.6600       150
     4.8800       128
     5.1000       162
     5.3200       150
     5.5400       144
     5.7600       154
     5.9800       178
     6.2000       140
     6.4200       142
     6.6400       128
     6.8600       118
     7.0800       102
     7.3000        94
     7.5200       100
     7.7400       116
     7.9600       102
     8.1800        98
     8.4000       106
     8.6200       110
     8.8400       112
     9.0600       104
     9.2800        94
     9.5000       110
     9.7200       112
     9.9400       102
    10.1600        90
    10.3800        86
    10.6000       102
    10.8200        94
    11.0400       146
    11.2600       162
    11.4800        70
    11.7000        80
    11.9200        78
    12.1400        72
    12.3600        70
    12.5800        80
    12.8000       108
    13.0200       166
    13.2400       450
    13.4600       376
    13.6800        72
    13.9000        70
    14.1200        72
    14.3400        86
    14.5600        56
    14.7800        72
    15.0000       218
    15.2200        66
    15.4400        56
    15.6600        60
    15.8800        62
    16.1000        76
    16.3200        66
    16.5400        52
    16.7600        48
    16.9800        52
    17.2000        38
    17.4200        54
    17.6400        46
    17.8600        54
    18.0800        54
    18.3000        74
    18.5200       164
    18.7400       368
    18.9600        92
    19.1800       296
    19.4000       136
    19.6200        84
    19.8400        80
    20.0600       176
    20.2800       170
    20.5000        56
    20.7200        66
    20.9400       166
    21.1600      3518
    21.3800       226
    21.6000        48
    21.8200        60
    22.0400        80
    22.2600       162
    22.4800      1238
    22.7000       126
    22.9200       218
    23.1400        56
    23.3600        36
    23.5800        40
    23.8000        44
    24.0200        40
    24.2400        56
    24.4600        46
    24.6800       118
    24.9000        96
    25.1200        50
    25.3400        44
    25.5600        28
    25.7800        30
    26.0000        42
    26.2200        54
    26.4400       108
    26.6600        40
    26.8800       124
    27.1000        50
    27.3200        56
    27.5400       104
    27.7600        56
    27.9800       250
    28.2000        86
    28.4200        48
    28.6400        44
    28.8600       100
    29.0800        66
    29.3000        44
    29.5200        64
    29.7400       390
    29.9600       386
    30.1800       136
    30.4000       290
    30.6200       140
    30.8400       528
    31.0600       258
    31.2800       182
    31.5000        56
    31.7200        66
    31.9400        40
    32.1600        34
    32.3800        34
    32.6000        38
    32.8200        30
    33.0400        48
    33.2600        46
    33.4800        50
    33.7000        34
    33.9200        24
    34.1400        38
    34.3600        72
    34.5800        66
    34.8000       122
    35.0200        36
    35.2400        44
    35.4600        32
    35.6800       108
    35.9000       120
    36.1200       142
    36.3400        96
    36.5600        70
    36.7800       138
    37.0000       182
    37.2200        54
    37.4400        34
    37.6600        42
    37.8800        46
    38.1000        44
    38.3200        42
    38.5400        36
    38.7600        72
    38.9800        92
    39.2000        38
    39.4200        52
    39.6400        40
    39.8600        34
    40.0800        54
    40.3000        70
    40.5200        32
    40.7400       108
    40.9600       866
    41.1800       112
    41.4000        60
    41.6200        50
    41.8400        38
    42.0600        36
    42.2800        74
    42.5000        58
    42.7200        90
    42.9400        68
    43.1600        48
    43.3800        80
    43.6000        88
    43.8200        42
    44.0400        66
    44.2600        32
    44.4800        26
    44.7000        44
    44.9200        56
    45.1400        80
    45.3600        74
    45.5800        36
    45.8000        42
    46.0200        32
    46.2400        40
    46.4600        62
    46.6800        48
    46.9000        46
    47.1200        36
    47.3400        20
    47.5600        40
    47.7800        34
    48.0000        18
    48.2200        30
    48.4400        42
    48.6600        46
    48.8800        62
    49.1000       128
    49.3200        50
    49.5400        26
    49.7600        30
    49.9800        34
    50.2000        66
    50.4200       174
    50.6400        72
    50.8600        46
    51.0800        58
    51.3000        60
    51.5200       124
    51.7400        54
    51.9600        58
    52.1800       384
    52.4000        68
    52.6200        80
    52.8400        52
    53.0600       108
    53.2800        86
    53.5000        40
    53.7200        36
    53.9400        30
    54.1600        42
    54.3800        40
    54.6000        38
    54.8200        30
    55.0400        40
    55.2600        60
    55.4800        62
    55.7000       100
    55.9200        40
    56.1400        58
    56.3600        48
    56.5800        54
    56.8000        84
    57.0200        76
    57.2400        74
    57.4600        42
    57.6800        56
    57.9000       106
    58.1200       132
    58.3400       612
    58.5600       102
    58.7800        52
    59.0000        32
    59.2200        30
    59.4400        38
    59.6600        64
    59.8800        48
    60.1000        44
    60.3200        58
    60.5400        40
    60.7600        38
    60.9800        38
    61.2000        24
    61.4200        42
    61.6400        14
    61.8600        42
    62.0800        48
    62.3000        78
    62.5200        46
    62.7400        50
    62.9600        88
    63.1800        72
    63.4000        58
    63.6200       118
    63.8400        60
    64.0600        40
    64.2800        28
    64.5000        24
    64.7200        24
    64.9400        54
    65.0000        42

File: GDS7---Scolecite.txt
/////////////////////////////////////////////////////////////////////////////////
/// Profile Data Ascii Dump (XRD)                                             ///
/////////////////////////////////////////////////////////////////////////////////

  Group     : Swayze
  Data      : GDS7
  File Name : GDS7.RAW

# Profile Datafile
          comment             = Scolecite
          date & time         = 08-03-25 05:51:12

# Measurement Condition
    X-ray tube
          target              = Cu
          voltage             = 40.0 (kV)
          current             = 30.0 (mA)
    Slits
          divergence slit     = 2.00000 (deg)
          scatter slit        = 2.00000 (deg)
          receiving slit      = 0.15000 (mm)
    Scanning
          drive axis          = Theta-2Theta
          scan range          =    4.000 -   65.000
          scan mode           = Continuous Scan
          scan speed          =   2.0000 (deg/min)
          sampling pitch      =   0.0200 (deg)
          preset time         =   0.60 (sec)

# Data      [ Total No. = 3051 ]
  <2Theta>   <   I   >
     4.0000       210
     4.2200       200
     4.4400       184
     4.6600       148
     4.8800       174
     5.1000       148
     5.3200       172
     5.5400       160
     5.7600       144
     5.9800       166
     6.2000       132
     6.4200       132
     6.6400       116
     6.8600       120
     7.0800       122
     7.3000       128
     7.5200        92
     7.7400       112
     7.9600       132
     8.1800        96
     8.4000       108
     8.6200       116
     8.8400       110
     9.0600       106
     9.2800       112
     9.5000       120
     9.7200       108
     9.9400        96
    10.1600        96
    10.3800       116
    10.6000        96
    10.8200        88
    11.0400       100
    11.2600        90
    11.4800        86
    11.7000        86
    11.9200        86
    12.1400        80
    12.3600        76
    12.5800        66
    12.8000        98
    13.0200       290
    13.2400      1880
    13.4600       106
    13.6800        68
    13.9000        66
    14.1200        58
    14.3400        62
    14.5600        74
    14.7800       138
    15.0000       248
    15.2200        64
    15.4400        46
    15.6600        58
    15.8800        54
    16.1000        48
    16.3200        56
    16.5400        66
    16.7600        64
    16.9800        72
    17.2000        38
    17.4200        66
    17.6400        54
    17.8600        52
    18.0800        44
    18.3000        80
    18.5200       552
    18.7400       186
    18.9600       346
    19.1800       142
    19.4000        72
    19.6200        62
    19.8400       136
    20.0600       350
    20.2800       180
    20.5000        46
    20.7200        90
    20.9400       604
    21.1600       138
    21.3800        90
    21.6000        46
    21.8200        68
    22.0400        58
    22.2600        40
    22.4800        38
    22.7000        30
    22.9200        48
    23.1400        30
    23.3600        52
    23.5800        42
    23.8000        48
    24.0200        64
    24.2400       104
    24.4600        46
    24.6800        44
    24.9000        30
    25.1200        32
    25.3400        40
    25.5600        36
    25.7800        34
    26.0000        38
    26.2200        24
    26.4400        46
    26.6600        82
    26.8800       126
    27.1000        52
    27.3200        70
    27.5400       236
    27.7600       116
    27.9800        84
    28.2000        90
    28.4200        34
    28.6400        62
    28.8600       126
    29.0800        84
    29.3000        38
    29.5200        44
    29.7400       216
    29.9600        64
    30.1800       140
    30.4000       400
    30.6200       530
    30.8400       648
    31.0600       284
    31.2800       102
    31.5000        32
    31.7200        28
    31.9400        32
    32.1600        30
    32.3800        32
    32.6000        26
    32.8200        28
    33.0400        40
    33.2600        42
    33.4800        36
    33.7000        24
    33.9200        26
    34.1400        46
    34.3600        82
    34.5800       138
    34.8000        30
    35.0200        44
    35.2400        24
    35.4600        36
    35.6800        38
    35.9000        58
    36.1200       138
    36.3400        40
    36.5600        80
    36.7800        56
    37.0000       108
    37.2200        26
    37.4400        28
    37.6600        44
    37.8800        64
    38.1000        32
    38.3200        36
    38.5400        66
    38.7600        84
    38.9800        74
    39.2000       112
    39.4200        84
    39.6400        90
    39.8600        70
    40.0800        48
    40.3000        38
    40.5200       148
    40.7400       764
    40.9600       102
    41.1800        74
    41.4000        40
    41.6200        34
    41.8400        40
    42.0600        48
    42.2800        20
    42.5000        34
    42.7200        94
    42.9400        30
    43.1600        34
    43.3800        76
    43.6000       124
    43.8200        40
    44.0400        58
    44.2600        60
    44.4800       160
    44.7000        28
    44.9200        32
    45.1400        26
    45.3600        70
    45.5800        34
    45.8000        26
    46.0200        28
    46.2400       102
    46.4600        32
    46.6800        38
    46.9000        22
    47.1200        32
    47.3400        42
    47.5600        76
    47.7800       110
    48.0000        56
    48.2200        66
    48.4400       102
    48.6600       352
    48.8800       308
    49.1000        40
    49.3200        42
    49.5400        50
    49.7600        42
    49.9800       260
    50.2000       102
    50.4200        90
    50.6400        36
    50.8600        38
    51.0800        18
    51.3000        52
    51.5200       168
    51.7400        74
    51.9600       154
    52.1800        98
    52.4000        82
    52.6200        26
    52.8400        38
    53.0600       118
    53.2800        20
    53.5000        22
    53.7200        30
    53.9400        30
    54.1600        36
    54.3800        36
    54.6000       100
    54.8200        56
    55.0400        54
    55.2600        94
    55.4800        74
    55.7000        38
    55.9200       104
    56.1400        86
    56.3600        50
    56.5800        66
    56.8000       298
    57.0200        94
    57.2400        56
    57.4600        82
    57.6800        96
    57.9000        76
    58.1200        58
    58.3400        48
    58.5600        36
    58.7800        16
    59.0000        30
    59.2200        34
    59.4400        24
    59.6600        40
    59.8800        52
    60.1000        32
    60.3200        58
    60.5400        56
    60.7600        34
    60.9800        38
    61.2000        30
    61.4200        28
    61.6400        42
    61.8600        96
    62.0800        48
    62.3000        28
    62.5200        92
    62.7400        64
    62.9600        98
    63.1800       160
    63.4000       106
    63.6200        42
    63.8400        40
    64.0600        32
    64.2800        24
    64.5000        28
    64.7200        28
    64.9400        66
    65.0000        60

File: GDS18---Mordenite.txt
/////////////////////////////////////////////////////////////////////////////////
/// Profile Data Ascii Dump (XRD)                                             ///
/////////////////////////////////////////////////////////////////////////////////

  Group     : Swayze
  Data      : GDS18
  File Name : GDS18.RAW

# Profile Datafile
          comment             = Mordenite
          date & time         = 08-03-24 07:48:58

# Measurement Condition
    X-ray tube
          target              = Cu
          voltage             = 40.0 (kV)
          current             = 30.0 (mA)
    Slits
          divergence slit     = 2.00000 (deg)
          scatter slit        = 2.00000 (deg)
          receiving slit      = 0.15000 (mm)
    Scanning
          drive axis          = Theta-2Theta
          scan range          =    4.000 -   65.000
          scan mode           = Continuous Scan
          scan speed          =   2.0000 (deg/min)
          sampling pitch      =   0.0200 (deg)
          preset time         =   0.60 (sec)

# Data      [ Total No. = 3051 ]
  <2Theta>   <   I   >
     4.0000       180
     4.2200       190
     4.4400       168
     4.6600       176
     4.8800       174
     5.1000       156
     5.3200       176
     5.5400       138
     5.7600       162
     5.9800       200
     6.2000       222
     6.4200       538
     6.6400       142
     6.8600       124
     7.0800       138
     7.3000       118
     7.5200       104
     7.7400       110
     7.9600       128
     8.1800       132
     8.4000       140
     8.6200       146
     8.8400       122
     9.0600       134
     9.2800       168
     9.5000       386
     9.7200       830
     9.9400       132
    10.1600       106
    10.3800       110
    10.6000       108
    10.8200        94
    11.0400        90
    11.2600        78
    11.4800        98
    11.7000        84
    11.9200        86
    12.1400        82
    12.3600        74
    12.5800        94
    12.8000       108
    13.0200       156
    13.2400       218
    13.4600       168
    13.6800       310
    13.9000       128
    14.1200       102
    14.3400        94
    14.5600       116
    14.7800       106
    15.0000       130
    15.2200       448
    15.4400        70
    15.6600        74
    15.8800        72
    16.1000        62
    16.3200        72
    16.5400        74
    16.7600        46
    16.9800        58
    17.2000        76
    17.4200        76
    17.6400        58
    17.8600        58
    18.0800        82
    18.3000        72
    18.5200        62
    18.7400        76
    18.9600        90
    19.1800       166
    19.4000       486
    19.6200       466
    19.8400       118
    20.0600        78
    20.2800        66
    20.5000        88
    20.7200        94
    20.9400        70
    21.1600       102
    21.3800       254
    21.6000        84
    21.8200       212
    22.0400      1386
    22.2600       808
    22.4800        84
    22.7000        88
    22.9200       148
    23.1400       190
    23.3600       114
    23.5800        96
    23.8000        78
    24.0200        64
    24.2400        78
    24.4600        90
    24.6800        94
    24.9000       104
    25.1200       156
    25.3400       278
    25.5600       496
    25.7800       156
    26.0000       812
    26.2200      1660
    26.4400       274
    26.6600       112
    26.8800       126
    27.1000       130
    27.3200       310
    27.5400       734
    27.7600      1018
    27.9800       162
    28.2000       124
    28.4200       102
    28.6400       118
    28.8600       114
    29.0800       100
    29.3000        64
    29.5200        64
    29.7400        76
    29.9600        80
    30.1800       116
    30.4000       116
    30.6200       190
    30.8400       256
    31.0600        72
    31.2800        74
    31.5000        72
    31.7200        66
    31.9400        56
    32.1600        72
    32.3800        76
    32.6000        96
    32.8200       112
    33.0400       154
    33.2600        84
    33.4800        58
    33.7000        68
    33.9200       126
    34.1400        60
    34.3600        70
    34.5800       100
    34.8000       178
    35.0200       308
    35.2400        88
    35.4600       218
    35.6800       122
    35.9000        68
    36.1200        72
    36.3400       148
    36.5600       100
    36.7800       106
    37.0000        78
    37.2200        60
    37.4400        68
    37.6600        58
    37.8800        68
    38.1000        50
    38.3200        48
    38.5400        46
    38.7600        60
    38.9800        70
    39.2000        74
    39.4200       106
    39.6400        98
    39.8600        68
    40.0800        62
    40.3000       132
    40.5200        88
    40.7400        70
    40.9600        60
    41.1800        64
    41.4000        72
    41.6200        94
    41.8400        80
    42.0600        60
    42.2800        90
    42.5000        78
    42.7200        72
    42.9400        50
    43.1600        54
    43.3800        56
    43.6000        44
    43.8200        96
    44.0400       290
    44.2600       236
    44.4800        98
    44.7000        68
    44.9200       106
    45.1400        74
    45.3600       120
    45.5800        86
    45.8000        68
    46.0200        72
    46.2400       112
    46.4600       244
    46.6800        94
    46.9000       100
    47.1200        88
    47.3400       102
    47.5600        40
    47.7800        64
    48.0000        72
    48.2200       124
    48.4400        90
    48.6600        82
    48.8800        70
    49.1000        92
    49.3200        52
    49.5400        38
    49.7600        58
    49.9800        78
    50.2000       132
    50.4200       174
    50.6400        94
    50.8600        92
    51.0800        56
    51.3000        64
    51.5200        48
    51.7400        54
    51.9600        46
    52.1800        34
    52.4000        56
    52.6200        56
    52.8400        40
    53.0600        68
    53.2800        78
    53.5000        52
    53.7200        76
    53.9400       118
    54.1600        74
    54.3800        62
    54.6000        66
    54.8200        92
    55.0400       140
    55.2600        90
    55.4800        64
    55.7000        54
    55.9200        58
    56.1400        60
    56.3600        54
    56.5800        80
    56.8000        54
    57.0200        54
    57.2400        52
    57.4600        70
    57.6800        74
    57.9000        54
    58.1200        52
    58.3400        36
    58.5600        46
    58.7800        54
    59.0000        58
    59.2200        54
    59.4400        62
    59.6600       118
    59.8800        88
    60.1000        54
    60.3200        54
    60.5400       122
    60.7600       160
    60.9800        64
    61.2000        50
    61.4200        50
    61.6400        54
    61.8600        58
    62.0800        52
    62.3000        52
    62.5200        62
    62.7400        88
    62.9600        90
    63.1800        48
    63.4000        46
    63.6200        48
    63.8400        54
    64.0600        72
    64.2800       156
    64.5000       154
    64.7200        66
    64.9400        54
    65.0000        54